{
  "resourceType" : "Bundle",
  "id" : "bundle-document-zika-anon",
  "meta" : {
    "profile" : ["http://fhir.org/fhir/us/anonymized-eicr/StructureDefinition/eicr-anon-document-bundle"]
  },
  "identifier" : {
    "system" : "urn:ietf:rfc:3986",
    "value" : "urn:uuid:2be4b4e4-6df1-4cb2-a947-c70fa0eda54d"
  },
  "type" : "document",
  "timestamp" : "2024-06-02T22:13:23Z",
  "entry" : [{
    "fullUrl" : "http://www.example.org/fhir/Composition/composition-zika-anon",
    "resource" : {
      "resourceType" : "Composition",
      "id" : "composition-zika-anon",
      "meta" : {
        "profile" : ["http://fhir.org/fhir/us/anonymized-eicr/StructureDefinition/eicr-anon-composition"]
      },
      "text" : {
        "status" : "extensions",
        "div" : "<div xmlns=\"http://www.w3.org/1999/xhtml\"><a name=\"Composition_composition-zika-anon\"> </a><p><b>Generated Narrative: Composition </b><a name=\"composition-zika-anon\"> </a><a name=\"hccomposition-zika-anon\"> </a></p><div style=\"display: inline-block; background-color: #d9e0e7; padding: 6px; margin: 4px; border: 1px solid #8da1b4; border-radius: 5px; line-height: 60%\"><p style=\"margin-bottom: 0px\">ResourceComposition &quot;composition-zika-anon&quot; </p><p style=\"margin-bottom: 0px\">Profile: <a href=\"StructureDefinition-eicr-anon-composition.html\">eICR Anonymized Composition</a></p></div><p><b>Composition Version Number</b>: 1</p><p><b>identifier</b>: c03eab8c-11e8-4d0c-ad2a-b385395e27db</p><p><b>status</b>: final</p><p><b>type</b>: Public Health Case Report <span style=\"background: LightGoldenRodYellow; margin: 4px; border: 1px solid khaki\"> (<a href=\"https://loinc.org/\">LOINC</a>#55751-2)</span></p><p><b>encounter</b>: See on this page: Encounter/encounter-outpatient-anon</p><p><b>date</b>: 2024-06-02 22:13:23+0000</p><p><b>author</b>: See on this page: PractitionerRole/practitionerrole-anon</p><p><b>title</b>: Initial Public Health Case Report - Zika Example</p><p><b>custodian</b>: See on this page: Organization/organization-telecom-anon</p><h3>RelatesTos</h3><table class=\"grid\"><tr><td style=\"display: none\">-</td><td><b>Code</b></td><td><b>Target[x]</b></td></tr><tr><td style=\"display: none\">*</td><td>transforms</td><td><a href=\"http://terminology.hl7.org/5.3.0/NamingSystem-uri.html\" title=\"As defined by RFC 3986 (http://www.ietf.org/rfc/rfc3986.txt)(with many schemes defined in many RFCs). For OIDs and UUIDs, use the URN form (urn:oid:(note: lowercase) and urn:uuid:). See http://www.ietf.org/rfc/rfc3001.txt and http://www.ietf.org/rfc/rfc4122.txt \r\n\r\nThis oid is used as an identifier II.root to indicate the the extension is an absolute URI (technically, an IRI). Typically, this is used for OIDs and GUIDs. Note that when this OID is used with OIDs and GUIDs, the II.extension should start with urn:oid or urn:uuid: \r\n\r\nNote that this OID is created to aid with interconversion between CDA and FHIR - FHIR uses urn:ietf:rfc:3986 as equivalent to this OID. URIs as identifiers appear more commonly in FHIR.\r\n\r\nThis OID may also be used in CD.codeSystem.\">Uniform Resource Identifier (URI)</a>/urn:uuid:58fecd25-973e-4397-af68-1b7683758955</td></tr></table></div>"
      },
      "extension" : [{
        "url" : "http://hl7.org/fhir/StructureDefinition/composition-clinicaldocument-versionNumber",
        "valueString" : "1"
      }],
      "identifier" : {
        "value" : "c03eab8c-11e8-4d0c-ad2a-b385395e27db"
      },
      "status" : "final",
      "type" : {
        "coding" : [{
          "system" : "http://loinc.org",
          "code" : "55751-2",
          "display" : "Public Health Case Report"
        }]
      },
      "subject" : {
        "reference" : "Patient/patient-anon"
      },
      "encounter" : {
        "reference" : "Encounter/encounter-outpatient-anon"
      },
      "date" : "2024-06-02T22:13:23Z",
      "author" : [{
        "reference" : "PractitionerRole/practitionerrole-anon"
      }],
      "title" : "Initial Public Health Case Report - Zika Example",
      "custodian" : {
        "reference" : "Organization/organization-telecom-anon"
      },
      "relatesTo" : [{
        "code" : "transforms",
        "targetIdentifier" : {
          "system" : "urn:ietf:rfc:3986",
          "value" : "urn:uuid:58fecd25-973e-4397-af68-1b7683758955"
        }
      }],
      "section" : [{
        "title" : "Reason for Visit Section",
        "code" : {
          "coding" : [{
            "system" : "http://loinc.org",
            "code" : "29299-5",
            "display" : "Reason for visit Narrative"
          }]
        },
        "text" : {
          "status" : "generated",
          "div" : "<div xmlns=\"http://www.w3.org/1999/xhtml\"><table xmlns:xsl=\"http://www.w3.org/1999/XSL/Transform\"><tr><td style=\"font-weight: bold\">title</td><td><div title=\"title\">Reason for Visit Section</div></td></tr><tr><td style=\"font-weight: bold\">code</td><td><ul style=\"list-style:none; padding-left:0; margin:0 0;\"><li><ul style=\"list-style:none; padding-left:0; margin:0 0;\"><li><div title=\"display\">Reason for visit Narrative</div>(<div title=\"code\">29299-5</div>)</li><li><div title=\"system\"><a href=\"http://loinc.org\">http://loinc.org</a></div></li></ul></li></ul></td></tr><tr><td colspan=\"2\" lang=\"en-US\" class=\"text-no-entries\"><p>Reason for Visit: Bad cough</p></td></tr></table></div>"
        }
      },
      {
        "title" : "Chief Complaint",
        "code" : {
          "coding" : [{
            "system" : "http://loinc.org",
            "code" : "10154-3",
            "display" : "Chief complaint Narrative - Reported"
          }]
        },
        "text" : {
          "status" : "generated",
          "div" : "<div xmlns=\"http://www.w3.org/1999/xhtml\"><table xmlns:xsl=\"http://www.w3.org/1999/XSL/Transform\"><tr><td style=\"font-weight: bold\">title</td><td><div title=\"title\">Chief complaint Narrative - Reported</div></td></tr><tr><td style=\"font-weight: bold\">code</td><td><ul style=\"list-style:none; padding-left:0; margin:0 0;\"><li><ul style=\"list-style:none; padding-left:0; margin:0 0;\"><li><div title=\"display\">Chief complaint Narrative - Reported</div>(<div title=\"code\">10154-3</div>)</li><li><div title=\"system\"><a href=\"http://loinc.org\">http://loinc.org</a></div></li></ul></li></ul></td></tr><tr><td colspan=\"2\" lang=\"en-US\" class=\"text-no-entries\"><p>Chief Complaint: Bad cough</p></td></tr></table></div>"
        }
      },
      {
        "title" : "History of Present Illness Section",
        "code" : {
          "coding" : [{
            "system" : "http://loinc.org",
            "code" : "10164-2",
            "display" : "History of Present illness Narrative"
          }]
        },
        "text" : {
          "extension" : [{
            "url" : "http://hl7.org/fhir/StructureDefinition/data-absent-reason",
            "valueCode" : "masked"
          }],
          "status" : "generated",
          "div" : "<div xmlns=\"http://www.w3.org/1999/xhtml\"><p>MASKED</p></div>"
        }
      },
      {
        "title" : "Problems Section",
        "code" : {
          "coding" : [{
            "system" : "http://loinc.org",
            "code" : "11450-4",
            "display" : "Problem list - Reported"
          }]
        },
        "text" : {
          "status" : "generated",
          "div" : "<div xmlns=\"http://www.w3.org/1999/xhtml\"><table xmlns:xsl=\"http://www.w3.org/1999/XSL/Transform\"><tr><td style=\"font-weight: bold\">title</td><td><div title=\"title\">Problems Section</div></td></tr><tr><td style=\"font-weight: bold\">code</td><td><ul style=\"list-style:none; padding-left:0; margin:0 0;\"><li><ul style=\"list-style:none; padding-left:0; margin:0 0;\"><li><div title=\"display\">Problem list - Reported</div>(<div title=\"code\">11450-4</div>)</li><li><div title=\"system\"><a href=\"http://loinc.org\">http://loinc.org</a></div></li></ul></li></ul></td></tr><tr><td style=\"font-weight: bold\">entry</td><td><a href=\"Condition-condition-common-cold-anon.html\">Common cold (disorder)</a><table><tr><td style=\"font-weight: bold\">id</td><td><div title=\"id\">condition-eicr-anonymized-common-cold</div></td></tr><tr><td style=\"font-weight: bold\">meta</td><td><table><tr><td style=\"font-weight: bold\">versionId</td><td><div title=\"versionId\">15</div></td></tr><tr><td style=\"font-weight: bold\">lastUpdated</td><td><div title=\"lastUpdated\">2019-10-10T21:21:49.000-04:00</div></td></tr><tr><td style=\"font-weight: bold\">profile</td><td><div title=\"profile\">http://hl7.org/fhir/us/ecr/StructureDefinition/us-ph-condition</div></td></tr></table></td></tr><tr><td style=\"font-weight: bold\">category</td><td><ul style=\"list-style:none; padding-left:0; margin:0 0;\"><li><ul style=\"list-style:none; padding-left:0; margin:0 0;\"><li><div title=\"display\">Problem List Item</div>(<div title=\"code\">problem-list-item</div>)</li><li><div title=\"system\"><a href=\"http://terminology.hl7.org/CodeSystem/condition-category\">http://terminology.hl7.org/CodeSystem/condition-category</a></div></li></ul></li></ul></td></tr><tr><td style=\"font-weight: bold\">code</td><td><ul style=\"list-style:none; padding-left:0; margin:0 0;\"><li><ul style=\"list-style:none; padding-left:0; margin:0 0;\"><li><div title=\"display\">Common cold (disorder)</div>(<div title=\"code\">82272006</div>)</li><li><div title=\"system\"><a href=\"http://snomed.info/sct\">http://snomed.info/sct</a></div></li></ul></li></ul></td></tr><tr><td style=\"font-weight: bold\">subject</td><td><ul style=\"list-style:none; padding-left:0; margin:0 0;\"><li/><li><a href=\"Patient-patient-anon.html\">anonymized</a></li></ul></td></tr><tr><td style=\"font-weight: bold\">onsetDateTime</td><td><div title=\"onsetDateTime\">2017-09-23</div></td></tr><tr><td style=\"font-weight: bold\">asserter</td><td><ul style=\"list-style:none; padding-left:0; margin:0 0;\"><li/><li><a href=\"Practitioner-practitioner-anon.html\">anonymized</a></li></ul></td></tr></table></td></tr></table></div>"
        },
        "entry" : [{
          "reference" : "Condition/condition-common-cold-anon"
        }]
      },
      {
        "title" : "Medications Administered Section",
        "code" : {
          "coding" : [{
            "system" : "http://loinc.org",
            "code" : "29549-3",
            "display" : "Medication administered Narrative"
          }]
        },
        "text" : {
          "status" : "generated",
          "div" : "<div xmlns=\"http://www.w3.org/1999/xhtml\"><table xmlns:xsl=\"http://www.w3.org/1999/XSL/Transform\"><tr><td style=\"font-weight: bold\">title</td><td><div title=\"title\">Medications Administered Section</div></td></tr><tr><td style=\"font-weight: bold\">code</td><td><ul style=\"list-style:none; padding-left:0; margin:0 0;\"><li><ul style=\"list-style:none; padding-left:0; margin:0 0;\"><li><div title=\"display\">Medication administered Narrative</div>(<div title=\"code\">29549-3</div>)</li><li><div title=\"system\"><a href=\"http://loinc.org\">http://loinc.org</a></div></li></ul></li></ul></td></tr><tr><td style=\"font-weight: bold\">entry</td><td><a href=\"MedicationAdministration-medicationadministration-azithromycin-anon.html\">Azithromycin 500 MG Oral Tablet</a><table><tr><td style=\"font-weight: bold\">id</td><td><div title=\"id\">medicationadministration-azithromycin-anon</div></td></tr><tr><td style=\"font-weight: bold\">meta</td><td><table><tr><td style=\"font-weight: bold\">versionId</td><td><div title=\"versionId\">10</div></td></tr><tr><td style=\"font-weight: bold\">lastUpdated</td><td><div title=\"lastUpdated\">2019-10-05T03:11:22.000-04:00</div></td></tr></table></td></tr><tr><td style=\"font-weight: bold\">status</td><td><div title=\"status\">completed</div></td></tr><tr><td style=\"font-weight: bold\">medicationCodeableConcept</td><td><ul style=\"list-style:none; padding-left:0; margin:0 0;\"><li><div title=\"text\">Azithromycin 500 MG Oral Tablet</div></li><li><ul style=\"list-style:none; padding-left:0; margin:0 0;\"><li><div title=\"display\">Azithromycin 500 MG Oral Tablet</div>(<div title=\"code\">248656</div>)</li><li><div title=\"system\"><a href=\"http://www.nlm.nih.gov/research/umls/rxnorm\">http://www.nlm.nih.gov/research/umls/rxnorm</a></div></li></ul></li></ul></td></tr><tr><td style=\"font-weight: bold\">subject</td><td><ul style=\"list-style:none; padding-left:0; margin:0 0;\"><li/><li><a href=\"Patient-patient-anon.html\">anonymized</a></li></ul></td></tr><tr><td style=\"font-weight: bold\">effectivePeriod</td><td><table><tr><td style=\"font-weight: bold\">start</td><td><div title=\"start\">2018-03-07</div></td></tr><tr><td style=\"font-weight: bold\">end</td><td><div title=\"end\">2018-03-07</div></td></tr></table></td></tr><tr><td style=\"font-weight: bold\">dosage</td><td><table><tr><td style=\"font-weight: bold\">route</td><td><ul style=\"list-style:none; padding-left:0; margin:0 0;\"><li><ul style=\"list-style:none; padding-left:0; margin:0 0;\"><li><div title=\"display\">Oral Route</div>(<div title=\"code\">26643006</div>)</li><li><div title=\"system\"><a href=\"http://snomed.info/sct\">http://snomed.info/sct</a></div></li></ul></li></ul></td></tr><tr><td style=\"font-weight: bold\">method</td><td><ul style=\"list-style:none; padding-left:0; margin:0 0;\"><li><ul style=\"list-style:none; padding-left:0; margin:0 0;\"><li><div title=\"display\">Swallow - dosing instruction imperative (qualifier value)</div>(<div title=\"code\">421521009</div>)</li><li><div title=\"system\"><a href=\"http://snomed.info/sct\">http://snomed.info/sct</a></div></li></ul></li></ul></td></tr><tr><td style=\"font-weight: bold\">dose</td><td><table><tr><td style=\"font-weight: bold\">value</td><td><div title=\"value\">2</div></td></tr><tr><td style=\"font-weight: bold\">unit</td><td><div title=\"unit\">TAB</div></td></tr><tr><td style=\"font-weight: bold\">system</td><td><div title=\"system\"><a href=\"http://terminology.hl7.org/CodeSystem/v3-orderableDrugForm\">http://terminology.hl7.org/CodeSystem/v3-orderableDrugForm</a></div></td></tr><tr><td style=\"font-weight: bold\">code</td><td><div title=\"code\">TAB</div></td></tr></table></td></tr></table></td></tr></table></td></tr></table></div>"
        },
        "entry" : [{
          "reference" : "MedicationAdministration/medicationadministration-azithromycin-anon"
        }]
      },
      {
        "title" : "Results Section",
        "code" : {
          "coding" : [{
            "system" : "http://loinc.org",
            "code" : "30954-2",
            "display" : "Relevant diagnostic tests/laboratory data Narrative"
          }]
        },
        "text" : {
          "status" : "generated",
          "div" : "<div xmlns=\"http://www.w3.org/1999/xhtml\"><table xmlns:xsl=\"http://www.w3.org/1999/XSL/Transform\"><tr><td style=\"font-weight: bold\">title</td><td><div title=\"title\">Results Section</div></td></tr><tr><td style=\"font-weight: bold\">code</td><td><ul style=\"list-style:none; padding-left:0; margin:0 0;\"><li><ul style=\"list-style:none; padding-left:0; margin:0 0;\"><li><div title=\"display\">Relevant Dx tests/lab data</div>(<div title=\"code\">30954-2</div>)</li><li><div title=\"system\"><a href=\"http://loinc.org\">http://loinc.org</a></div></li></ul></li></ul></td></tr><tr><td style=\"font-weight: bold\">entry</td><td><a href=\"Observation-observation-lab-result-lymphocytes-anon.html\">Lymphocytes [#/​volume] in Blood by Automated count - Interpretation: High</a><table><tr><td style=\"font-weight: bold\">id</td><td><div title=\"id\">observation-us-ph-lab-result-anonymized-lymphocytes</div></td></tr><tr><td style=\"font-weight: bold\">meta</td><td><table><tr><td style=\"font-weight: bold\">versionId</td><td><div title=\"versionId\">10</div></td></tr><tr><td style=\"font-weight: bold\">lastUpdated</td><td><div title=\"lastUpdated\">2019-10-05T02:50:13.000-04:00</div></td></tr><tr><td style=\"font-weight: bold\">profile</td><td><div title=\"profile\">http://hl7.org/fhir/us/ecr/StructureDefinition/us-ph-lab-result-observation</div></td></tr></table></td></tr><tr><td style=\"font-weight: bold\">status</td><td><div title=\"status\">final</div></td></tr><tr><td style=\"font-weight: bold\">category</td><td><ul style=\"list-style:none; padding-left:0; margin:0 0;\"><li><div title=\"text\">Laboratory</div></li><li><ul style=\"list-style:none; padding-left:0; margin:0 0;\"><li><div title=\"display\">Laboratory</div>(<div title=\"code\">laboratory</div>)</li><li><div title=\"system\"><a href=\"http://terminology.hl7.org/CodeSystem/observation-category\">http://terminology.hl7.org/CodeSystem/observation-category</a></div></li></ul></li></ul></td></tr><tr><td style=\"font-weight: bold\">code</td><td><ul style=\"list-style:none; padding-left:0; margin:0 0;\"><li><ul style=\"list-style:none; padding-left:0; margin:0 0;\"><li><div title=\"display\">Lymphocytes [#/volume] in Blood by Automated count</div>(<div title=\"code\">731-0</div>)</li><li><div title=\"system\"><a href=\"http://loinc.org\">http://loinc.org</a></div></li></ul></li></ul></td></tr><tr><td style=\"font-weight: bold\">subject</td><td><ul style=\"list-style:none; padding-left:0; margin:0 0;\"><li/><li><a href=\"Patient-patient-anon.html\">anonymized</a></li></ul></td></tr><tr><td style=\"font-weight: bold\">effectiveDateTime</td><td><div title=\"effectiveDateTime\">2018-03-07</div></td></tr><tr><td style=\"font-weight: bold\">valueQuantity</td><td><ul style=\"list-style:none; padding-left:0; margin:0 0;\"><li><div title=\"value\">5.2</div></li><li><div title=\"system\"><a href=\"http://unitsofmeasure.org\">http://unitsofmeasure.org</a></div></li><li><div title=\"code\">10*3/uL</div></li></ul></td></tr><tr><td style=\"font-weight: bold\">interpretation</td><td><ul style=\"list-style:none; padding-left:0; margin:0 0;\"><li><ul style=\"list-style:none; padding-left:0; margin:0 0;\"><li><div title=\"display\">High</div>(<div title=\"code\">H</div>)</li><li><div title=\"system\"><a href=\"http://terminology.hl7.org/CodeSystem/v3-ObservationInterpretation\">http://terminology.hl7.org/CodeSystem/v3-ObservationInterpretation</a></div></li></ul></li></ul></td></tr><tr><td style=\"font-weight: bold\">referenceRange</td><td><table><tr><td style=\"font-weight: bold\">low</td><td><table><tr><td style=\"font-weight: bold\">value</td><td><div title=\"value\">1</div></td></tr><tr><td style=\"font-weight: bold\">system</td><td><div title=\"system\"><a href=\"http://unitsofmeasure.org\">http://unitsofmeasure.org</a></div></td></tr><tr><td style=\"font-weight: bold\">code</td><td><div title=\"code\">10*3/uL</div></td></tr></table></td></tr><tr><td style=\"font-weight: bold\">high</td><td><table><tr><td style=\"font-weight: bold\">value</td><td><div title=\"value\">4.8</div></td></tr><tr><td style=\"font-weight: bold\">system</td><td><div title=\"system\"><a href=\"http://unitsofmeasure.org\">http://unitsofmeasure.org</a></div></td></tr><tr><td style=\"font-weight: bold\">code</td><td><div title=\"code\">10*3/uL</div></td></tr></table></td></tr></table></td></tr></table></td></tr></table></div>"
        },
        "entry" : [{
          "reference" : "Observation/observation-lab-result-lymphocytes-anon"
        }]
      },
      {
        "title" : "Social History Section",
        "code" : {
          "coding" : [{
            "system" : "http://loinc.org",
            "code" : "29762-2",
            "display" : "Social history Narrative"
          }]
        },
        "text" : {
          "status" : "generated",
          "div" : "<div xmlns=\"http://www.w3.org/1999/xhtml\"><table xmlns:xsl=\"http://www.w3.org/1999/XSL/Transform\"><tr><td style=\"font-weight: bold\">title</td><td><div title=\"title\">Social History Section</div></td></tr><tr><td style=\"font-weight: bold\">code</td><td><ul style=\"list-style:none; padding-left:0; margin:0 0;\"><li><ul style=\"list-style:none; padding-left:0; margin:0 0;\"><li><div title=\"display\">Social history Narrative</div>(<div title=\"code\">29762-2</div>)</li><li><div title=\"system\"><a href=\"http://loinc.org\">http://loinc.org</a></div></li></ul></li></ul></td></tr><tr><td style=\"font-weight: bold\">entry</td><td><a href=\"Observation-observation-travel-history-201801-anon.html\">eICR Travel History: anonymized 2018-01</a><table><tr><td style=\"font-weight: bold\">id</td><td><div title=\"id\">observation-travel-history-anonymized-201801</div></td></tr><tr><td style=\"font-weight: bold\">meta</td><td><table><tr><td style=\"font-weight: bold\">versionId</td><td><div title=\"versionId\">11</div></td></tr><tr><td style=\"font-weight: bold\">lastUpdated</td><td><div title=\"lastUpdated\">2019-10-05T03:15:42.000-04:00</div></td></tr><tr><td style=\"font-weight: bold\">profile</td><td><div title=\"profile\">http://hl7.org/fhir/us/ecr/StructureDefinition/us-ph-travel-history</div></td></tr></table></td></tr><tr><td style=\"font-weight: bold\">status</td><td><div title=\"status\">final</div></td></tr><tr><td style=\"font-weight: bold\">code</td><td><ul style=\"list-style:none; padding-left:0; margin:0 0;\"><li><div title=\"text\">Travel History</div></li><li><ul style=\"list-style:none; padding-left:0; margin:0 0;\"><li><div title=\"display\">Travel</div>(<div title=\"code\">420008001</div>)</li><li><div title=\"system\"><a href=\"http://snomed.info/sct\">http://snomed.info/sct</a></div></li></ul></li></ul></td></tr><tr><td style=\"font-weight: bold\">subject</td><td><ul style=\"list-style:none; padding-left:0; margin:0 0;\"><li/><li><a href=\"Patient-patient-anon.html\">anonymized</a></li></ul></td></tr><tr><td style=\"font-weight: bold\">effectivePeriod</td><td><table><tr><td style=\"font-weight: bold\">start</td><td><div title=\"start\">2018-01-15</div></td></tr><tr><td style=\"font-weight: bold\">end</td><td><div title=\"end\">2018-01-30</div></td></tr></table></td></tr><tr><td style=\"font-weight: bold\">component</td><td><table><tr><td style=\"font-weight: bold\">code</td><td><ul style=\"list-style:none; padding-left:0; margin:0 0;\"><li><ul style=\"list-style:none; padding-left:0; margin:0 0;\"><li><div title=\"display\">Location</div>(<div title=\"code\">LOC</div>)</li><li><div title=\"system\"><a href=\"http://terminology.hl7.org/CodeSystem/v3-ParticipationType\">http://terminology.hl7.org/CodeSystem/v3-ParticipationType</a></div></li></ul></li></ul></td></tr><tr><td style=\"font-weight: bold\">valueCodeableConcept</td><td><ul style=\"list-style:none; padding-left:0; margin:0 0;\"><li><ul style=\"list-style:none; padding-left:0; margin:0 0;\"><li><div title=\"display\">Fiji</div>(<div title=\"code\">FJI</div>)</li><li><div title=\"system\">urn:iso:std:iso:3166</div></li></ul></li></ul></td></tr></table></td></tr><tr><td style=\"font-weight: bold\">component</td><td><table><tr><td style=\"font-weight: bold\">code</td><td><ul style=\"list-style:none; padding-left:0; margin:0 0;\"><li><ul style=\"list-style:none; padding-left:0; margin:0 0;\"><li><div title=\"display\">Location</div>(<div title=\"code\">LOC</div>)</li><li><div title=\"system\"><a href=\"http://terminology.hl7.org/CodeSystem/v3-ParticipationType\">http://terminology.hl7.org/CodeSystem/v3-ParticipationType</a></div></li></ul></li></ul></td></tr><tr><td style=\"font-weight: bold\">valueCodeableConcept</td><td><ul style=\"list-style:none; padding-left:0; margin:0 0;\"><li><ul style=\"list-style:none; padding-left:0; margin:0 0;\"><li><div title=\"display\">Vanuatu</div>(<div title=\"code\">VUT</div>)</li><li><div title=\"system\"><a href=\"https://phinvads.cdc.gov/vads/ViewCodeSystem.action?id=1.0.3166.1\">https://phinvads.cdc.gov/vads/ViewCodeSystem.action?id=1.0.3166.1</a></div></li></ul></li></ul></td></tr></table></td></tr></table></td></tr><tr><td style=\"font-weight: bold\">entry</td><td><a href=\"Observation-observation-odh-usual-work-anon.html\">ODH Usual Work Example</a><table><tr><td style=\"font-weight: bold\">id</td><td><div title=\"id\">observation-odh-usual-work-anonymized</div></td></tr><tr><td style=\"font-weight: bold\">meta</td><td><table><tr><td style=\"font-weight: bold\">versionId</td><td><div title=\"versionId\">2</div></td></tr><tr><td style=\"font-weight: bold\">lastUpdated</td><td><div title=\"lastUpdated\">2019-10-20T10:53:14.000-04:00</div></td></tr><tr><td style=\"font-weight: bold\">profile</td><td><div title=\"profile\">http://hl7.org/fhir/us/odh/StructureDefinition/odh-UsualWork</div></td></tr></table></td></tr><tr><td style=\"font-weight: bold\">status</td><td><div title=\"status\">final</div></td></tr><tr><td style=\"font-weight: bold\">code</td><td><ul style=\"list-style:none; padding-left:0; margin:0 0;\"><li><ul style=\"list-style:none; padding-left:0; margin:0 0;\"><li><div title=\"display\">History of Usual occupation</div>(<div title=\"code\">21843-8</div>)</li><li><div title=\"system\"><a href=\"http://loinc.org\">http://loinc.org</a></div></li></ul></li></ul></td></tr><tr><td style=\"font-weight: bold\">subject</td><td><ul style=\"list-style:none; padding-left:0; margin:0 0;\"><li/><li><a href=\"Patient-patient-anon.html\">anonymized</a></li></ul></td></tr><tr><td style=\"font-weight: bold\">effectivePeriod</td><td><table><tr><td style=\"font-weight: bold\">start</td><td><div title=\"start\">2015-01-01</div></td></tr><tr><td style=\"font-weight: bold\">end</td><td><div title=\"end\">2018-03-07</div></td></tr></table></td></tr><tr><td style=\"font-weight: bold\">valueCodeableConcept</td><td><ul style=\"list-style:none; padding-left:0; margin:0 0;\"><li><ul style=\"list-style:none; padding-left:0; margin:0 0;\"><li><div title=\"display\">Human Resources Managers</div>(<div title=\"code\">0136</div>)</li><li><div title=\"system\"><a href=\"https://phinvads.cdc.gov/vads/ViewCodeSystem.action?id=2.16.840.1.114222.4.5.314\">https://phinvads.cdc.gov/vads/ViewCodeSystem.action?id=2.16.840.1.114222.4.5.314</a></div></li></ul></li></ul></td></tr><tr><td style=\"font-weight: bold\">component</td><td><table><tr><td style=\"font-weight: bold\">code</td><td><ul style=\"list-style:none; padding-left:0; margin:0 0;\"><li><ul style=\"list-style:none; padding-left:0; margin:0 0;\"><li><div title=\"display\">History of Usual industry</div>(<div title=\"code\">21844-6</div>)</li><li><div title=\"system\"><a href=\"http://loinc.org\">http://loinc.org</a></div></li></ul></li></ul></td></tr><tr><td style=\"font-weight: bold\">valueCodeableConcept</td><td><ul style=\"list-style:none; padding-left:0; margin:0 0;\"><li><ul style=\"list-style:none; padding-left:0; margin:0 0;\"><li><div title=\"display\">Hospitals</div>(<div title=\"code\">8190</div>)</li><li><div title=\"system\"><a href=\"https://phinvads.cdc.gov/vads/ViewCodeSystem.action?id=2.16.840.1.114222.4.5.315\">https://phinvads.cdc.gov/vads/ViewCodeSystem.action?id=2.16.840.1.114222.4.5.315</a></div></li></ul></li></ul></td></tr></table></td></tr></table></td></tr></table></div>"
        },
        "entry" : [{
          "reference" : "Observation/observation-travel-history-201801-anon"
        },
        {
          "reference" : "Observation/observation-odh-usual-work-anon"
        },
        {
          "reference" : "Observation/observation-disability-status-anon"
        },
        {
          "reference" : "Observation/observation-country-of-nationality-anon"
        },
        {
          "reference" : "Observation/observation-country-of-residence-anon"
        },
        {
          "reference" : "Observation/observation-calculated-age-anon"
        }]
      },
      {
        "title" : "Admission Medications Section",
        "code" : {
          "coding" : [{
            "system" : "http://loinc.org",
            "code" : "42346-7",
            "display" : "Medications on admission (narrative)"
          }]
        },
        "text" : {
          "status" : "generated",
          "div" : "<div xmlns=\"http://www.w3.org/1999/xhtml\"><table><tr><td style=\"font-weight: bold\">title</td><td><div title=\"title\">Admission Medications Section</div></td></tr><tr><td style=\"font-weight: bold\">code</td><td><ul style=\"list-style:none; padding-left:0; margin:0 0;\"><li><ul style=\"list-style:none; padding-left:0; margin:0 0;\"><li><div title=\"display\">Medications on admission (narrative)</div>(<div title=\"code\">42346-7</div>)</li><li><div title=\"system\"><a href=\"http://loinc.org\">http://loinc.org</a></div></li></ul></li></ul></td></tr><tr><td style=\"font-weight: bold\">entry</td><td><a href=\"MedicationAdministration-medicationadministration-naloxone-response-anon.html\">naloxone HCl 0.4 MG in 1 ML Injection</a></td></tr></table></div>"
        },
        "entry" : [{
          "reference" : "MedicationAdministration/medicationadministration-naloxone-response-anon"
        }]
      },
      {
        "title" : "Medications Section",
        "code" : {
          "coding" : [{
            "system" : "http://loinc.org",
            "code" : "10160-0",
            "display" : "History of Medication use Narrative"
          }]
        },
        "text" : {
          "status" : "generated",
          "div" : "<div xmlns=\"http://www.w3.org/1999/xhtml\"><table><tr><td style=\"font-weight: bold\">title</td><td><div title=\"title\">Medications Section</div></td></tr><tr><td style=\"font-weight: bold\">code</td><td><ul style=\"list-style:none; padding-left:0; margin:0 0;\"><li><ul style=\"list-style:none; padding-left:0; margin:0 0;\"><li><div title=\"display\">History of Medication use Narrative</div>(<div title=\"code\">10160-0</div>)</li><li><div title=\"system\"><a href=\"http://loinc.org\">http://loinc.org</a></div></li></ul></li></ul></td></tr><tr><td style=\"font-weight: bold\">entry</td><td><a href=\"MedicationAdministration-medicationadministration-azithromycin-anon.html\">Azithromycin 500 MG Oral Tablet</a></td></tr></table></div>"
        },
        "entry" : [{
          "reference" : "MedicationAdministration/medicationadministration-azithromycin-anon"
        }]
      },
      {
        "title" : "Plan of Treatment Section",
        "code" : {
          "coding" : [{
            "system" : "http://loinc.org",
            "code" : "18776-5",
            "display" : "Plan of care note"
          }]
        },
        "text" : {
          "status" : "generated",
          "div" : "<div xmlns=\"http://www.w3.org/1999/xhtml\"><table xmlns:xsl=\"http://www.w3.org/1999/XSL/Transform\"><tr><td style=\"font-weight: bold\">title</td><td><div title=\"title\">Plan of Treatment Section</div></td></tr><tr><td style=\"font-weight: bold\">code</td><td><ul style=\"list-style:none; padding-left:0; margin:0 0;\"><li><ul style=\"list-style:none; padding-left:0; margin:0 0;\"><li><div title=\"display\">Plan of care note</div>(<div title=\"code\">18776-5</div>)</li><li><div title=\"system\"><a href=\"http://loinc.org\">http://loinc.org</a></div></li></ul></li></ul></td></tr><tr><td style=\"font-weight: bold\">entry</td><td><ul style=\"list-style:none; padding-left:0; margin:0 0;\"><li><b>Trigger code</b></li><li>Trigger Code:</li><li>Trigger Code Display:</li><li>Trigger Code System:</li><li>Trigger Code Value Set: urn:oid:2.16.840.1.114222.4.11.7508</li><li>Trigger Code Value Set Version: 19/05/2018</li></ul><a href=\"ServiceRequest-servicerequest-zika-anon.html\">Request for Zika virus envelope (E) gene [Presence] in Serum by Probe and target amplification method</a><table><tr><td style=\"font-weight: bold\">id</td><td><div title=\"id\">servicerequest-eicr-zika</div></td></tr><tr><td style=\"font-weight: bold\">meta</td><td><table><tr><td style=\"font-weight: bold\">versionId</td><td><div title=\"versionId\">9</div></td></tr><tr><td style=\"font-weight: bold\">lastUpdated</td><td><div title=\"lastUpdated\">2019-10-23T13:56:36.000-04:00</div></td></tr><tr><td style=\"font-weight: bold\">profile</td><td><div title=\"profile\">http://hl7.org/fhir/us/ecr/StructureDefinition/eicr-servicerequest</div></td></tr></table></td></tr><tr><td style=\"font-weight: bold\">status</td><td><div title=\"status\">completed</div></td></tr><tr><td style=\"font-weight: bold\">intent</td><td><div title=\"intent\">order</div></td></tr><tr><td style=\"font-weight: bold\">category</td><td><ul style=\"list-style:none; padding-left:0; margin:0 0;\"><li><div title=\"text\">Diagnostics Procedure</div></li><li><ul style=\"list-style:none; padding-left:0; margin:0 0;\"><li><div title=\"display\">Diagnostic procedure (procedure)</div>(<div title=\"code\">103693007</div>)</li><li><div title=\"system\"><a href=\"http://snomed.info/sct\">http://snomed.info/sct</a></div></li></ul></li></ul></td></tr><tr><td style=\"font-weight: bold\">code</td><td><ul style=\"list-style:none; padding-left:0; margin:0 0;\"><li><div title=\"text\">Zika RT-PCR</div></li><li><ul style=\"list-style:none; padding-left:0; margin:0 0;\"><li><div title=\"display\">Zika virus envelope E gene [Presence] in Serum by NAA with probe detection</div>(<div title=\"code\">80825-3</div>)</li><li><div title=\"system\"><a href=\"http://loinc.org\">http://loinc.org</a></div></li></ul></li></ul></td></tr><tr><td style=\"font-weight: bold\">subject</td><td><ul style=\"list-style:none; padding-left:0; margin:0 0;\"><li/><li><a href=\"Patient-patient-anon.html\">anonymized</a></li></ul></td></tr><tr><td style=\"font-weight: bold\">performer</td><td><ul style=\"list-style:none; padding-left:0; margin:0 0;\"><li/><li><a href=\"Organization-organization-acme-laboratory-telecom-anon.html\">Acme Labs</a></li></ul></td></tr></table></td></tr></table></div>"
        },
        "entry" : [{
          "extension" : [{
            "extension" : [{
              "url" : "triggerCodeValueSet",
              "valueOid" : "urn:oid:2.16.840.1.114222.4.11.7508"
            },
            {
              "url" : "triggerCodeValueSetVersion",
              "valueString" : "19/05/2018"
            },
            {
              "url" : "triggerCode",
              "valueCoding" : {
                "system" : "http://snomed.info/sct",
                "code" : "3928002",
                "display" : "Zika virus disease (disorder)"
              }
            }],
            "url" : "http://hl7.org/fhir/us/ecr/StructureDefinition/eicr-trigger-code-flag-extension"
          }],
          "reference" : "ServiceRequest/servicerequest-zika-anon"
        }]
      },
      {
        "title" : "Immunizations Section",
        "code" : {
          "coding" : [{
            "system" : "http://loinc.org",
            "code" : "11369-6",
            "display" : "History of Immunization Narrative"
          }]
        },
        "text" : {
          "status" : "generated",
          "div" : "<div xmlns=\"http://www.w3.org/1999/xhtml\"><table><tr><td style=\"font-weight: bold\">title</td><td><div title=\"title\">Immunizations Section</div></td></tr><tr><td style=\"font-weight: bold\">code</td><td><ul style=\"list-style:none; padding-left:0; margin:0 0;\"><li><ul style=\"list-style:none; padding-left:0; margin:0 0;\"><li><div title=\"display\">History of Immunization Narrative</div>(<div title=\"code\">11369-6</div>)</li><li><div title=\"system\"><a href=\"http://loinc.org\">http://loinc.org</a></div></li></ul></li></ul></td></tr><tr><td style=\"font-weight: bold\">entry</td><td><a href=\"Immunization-immunization-pneumo-anon.html\">pneumococcal polysaccharide vaccine</a></td></tr><tr><td style=\"font-weight: bold\">entry</td><td><a href=\"Observation-observation-vaccine-credential-assertion-anon.html\">Vaccine Credential Patient Assertion Observation Example</a></td></tr></table></div>"
        },
        "entry" : [{
          "reference" : "Immunization/immunization-pneumo-anon"
        },
        {
          "reference" : "Observation/observation-vaccine-credential-assertion-anon"
        }]
      },
      {
        "title" : "Procedures Section",
        "code" : {
          "coding" : [{
            "system" : "http://loinc.org",
            "code" : "47519-4",
            "display" : "History of Procedures Document"
          }]
        },
        "text" : {
          "status" : "generated",
          "div" : "<div xmlns=\"http://www.w3.org/1999/xhtml\"><table><tr><td style=\"font-weight: bold\">title</td><td><div title=\"title\">Procedures Section</div></td></tr><tr><td style=\"font-weight: bold\">code</td><td><ul style=\"list-style:none; padding-left:0; margin:0 0;\"><li><ul style=\"list-style:none; padding-left:0; margin:0 0;\"><li><div title=\"display\">History of Procedures Document</div>(<div title=\"code\">47519-4</div>)</li><li><div title=\"system\"><a href=\"http://loinc.org\">http://loinc.org</a></div></li></ul></li></ul></td></tr><tr><td style=\"font-weight: bold\">entry</td><td><a href=\"Procedure-procedure-ecmo-anon.html\">Extracorporeal membrane oxygenation (procedure)</a></td></tr></table></div>"
        },
        "entry" : [{
          "reference" : "Procedure/procedure-ecmo-anon"
        }]
      },
      {
        "title" : "Vital Signs Section",
        "code" : {
          "coding" : [{
            "system" : "http://loinc.org",
            "code" : "8716-3",
            "display" : "Vital signs"
          }]
        },
        "text" : {
          "status" : "generated",
          "div" : "<div xmlns=\"http://www.w3.org/1999/xhtml\"><table><tr><td style=\"font-weight: bold\">title</td><td><div title=\"title\">Vital Signs Section</div></td></tr><tr><td style=\"font-weight: bold\">code</td><td><ul style=\"list-style:none; padding-left:0; margin:0 0;\"><li><ul style=\"list-style:none; padding-left:0; margin:0 0;\"><li><div title=\"display\">Vital signs</div>(<div title=\"code\">8716-3</div>)</li><li><div title=\"system\"><a href=\"http://loinc.org\">http://loinc.org</a></div></li></ul></li></ul></td></tr><tr><td style=\"font-weight: bold\">entry</td><td><a href=\"Observation-observation-blood-pressure-anon.html\">Blood pressure systolic and diastolic</a></td></tr></table></div>"
        },
        "entry" : [{
          "reference" : "Observation/observation-blood-pressure-anon"
        }]
      },
      {
        "title" : "Pregnancy Section",
        "code" : {
          "coding" : [{
            "system" : "http://loinc.org",
            "code" : "90767-5",
            "display" : "Pregnancy summary Document"
          }]
        },
        "text" : {
          "status" : "generated",
          "div" : "<div xmlns=\"http://www.w3.org/1999/xhtml\"><table xmlns:xsl=\"http://www.w3.org/1999/XSL/Transform\"><tr><td style=\"font-weight: bold\">title</td><td><div title=\"title\">Pregnancy Section</div></td></tr><tr><td style=\"font-weight: bold\">code</td><td><ul style=\"list-style:none; padding-left:0; margin:0 0;\"><li><ul style=\"list-style:none; padding-left:0; margin:0 0;\"><li><div title=\"display\">Pregnancy summary Document</div>(<div title=\"code\">90767-5</div>)</li><li><div title=\"system\"><a href=\"http://loinc.org\">http://loinc.org</a></div></li></ul></li></ul></td></tr><tr><td style=\"font-weight: bold\">entry</td><td><a href=\"Observation-observation-pregnancy-status-anon.html\">eICR Pregnancy Status Example</a><table><tr><td style=\"font-weight: bold\">id</td><td><div title=\"id\">observation-pregnancy-status-anonymized</div></td></tr><tr><td style=\"font-weight: bold\">meta</td><td><table><tr><td style=\"font-weight: bold\">versionId</td><td><div title=\"versionId\">13</div></td></tr><tr><td style=\"font-weight: bold\">lastUpdated</td><td><div title=\"lastUpdated\">2019-10-05T03:15:42.000-04:00</div></td></tr><tr><td style=\"font-weight: bold\">profile</td><td><div title=\"profile\">http://hl7.org/fhir/us/ecr/StructureDefinition/us-ph-pregnancy-status-observation</div></td></tr></table></td></tr><tr><td style=\"font-weight: bold\">us-ph-date-recorded-extension</td><td><ul style=\"list-style:none; padding-left:0; margin:0 0;\"><li><div title=\"valueDateTime\">2017-10-01</div></li></ul></td></tr><tr><td style=\"font-weight: bold\">date-determined-extension</td><td><ul style=\"list-style:none; padding-left:0; margin:0 0;\"><li><div title=\"valueDateTime\">2017-10-01</div></li></ul></td></tr><tr><td style=\"font-weight: bold\">status</td><td><div title=\"status\">final</div></td></tr><tr><td style=\"font-weight: bold\">code</td><td><ul style=\"list-style:none; padding-left:0; margin:0 0;\"><li><ul style=\"list-style:none; padding-left:0; margin:0 0;\"><li><div title=\"display\">Pregnancy Status</div>(<div title=\"code\">82810-3</div>)</li><li><div title=\"system\"><a href=\"http://loinc.org\">http://loinc.org</a></div></li></ul></li></ul></td></tr><tr><td style=\"font-weight: bold\">subject</td><td><ul style=\"list-style:none; padding-left:0; margin:0 0;\"><li/><li><a href=\"Patient-patient-anon.html\">anonymized</a></li></ul></td></tr><tr><td style=\"font-weight: bold\">effectivePeriod</td><td><table><tr><td style=\"font-weight: bold\">start</td><td><div title=\"start\">2017-08-26</div></td></tr></table></td></tr><tr><td style=\"font-weight: bold\">valueCodeableConcept</td><td><ul style=\"list-style:none; padding-left:0; margin:0 0;\"><li><ul style=\"list-style:none; padding-left:0; margin:0 0;\"><li><div title=\"display\">Pregnancy (finding)</div>(<div title=\"code\">77386006</div>)</li><li><div title=\"system\"><a href=\"http://snomed.info/sct\">http://snomed.info/sct</a></div></li></ul></li></ul></td></tr><tr><td style=\"font-weight: bold\">method</td><td><ul style=\"list-style:none; padding-left:0; margin:0 0;\"><li><ul style=\"list-style:none; padding-left:0; margin:0 0;\"><li><div title=\"display\">Diagnostic ultrasonography (procedure)</div>(<div title=\"code\">16310003</div>)</li><li><div title=\"system\"><a href=\"http://snomed.info/sct\">http://snomed.info/sct</a></div></li></ul></li></ul></td></tr><tr><td style=\"font-weight: bold\">component</td><td><table><tr><td style=\"font-weight: bold\">date-determined-extension</td><td><ul style=\"list-style:none; padding-left:0; margin:0 0;\"><li><div title=\"valueDateTime\">2017-10-01</div></li></ul></td></tr><tr><td style=\"font-weight: bold\">code</td><td><ul style=\"list-style:none; padding-left:0; margin:0 0;\"><li><ul style=\"list-style:none; padding-left:0; margin:0 0;\"><li><div title=\"display\">Gestational age Estimated from patient reported estimated date of conception</div>(<div title=\"code\">53691-2</div>)</li><li><div title=\"system\"><a href=\"http://loinc.org\">http://loinc.org</a></div></li></ul></li></ul></td></tr><tr><td style=\"font-weight: bold\">valueQuantity</td><td><ul style=\"list-style:none; padding-left:0; margin:0 0;\"><li><div title=\"value\">143</div></li><li><div title=\"unit\">d</div></li></ul></td></tr></table></td></tr><tr><td style=\"font-weight: bold\">component</td><td><table><tr><td style=\"font-weight: bold\">date-determined-extension</td><td><ul style=\"list-style:none; padding-left:0; margin:0 0;\"><li><div title=\"valueDateTime\">2017-10-01</div></li></ul></td></tr><tr><td style=\"font-weight: bold\">code</td><td><ul style=\"list-style:none; padding-left:0; margin:0 0;\"><li><ul style=\"list-style:none; padding-left:0; margin:0 0;\"><li><div title=\"display\">Delivery date Estimated from date fundal height reaches umb</div>(<div title=\"code\">57064-8</div>)</li><li><div title=\"system\"><a href=\"http://loinc.org\">http://loinc.org</a></div></li></ul></li></ul></td></tr><tr><td style=\"font-weight: bold\">valueDateTime</td><td><div title=\"valueDateTime\">2018-05-01</div></td></tr></table></td></tr></table></td></tr></table></div>"
        },
        "entry" : [{
          "reference" : "Observation/observation-pregnancy-status-anon"
        }]
      },
      {
        "title" : "Emergency Outbreak Information Section",
        "code" : {
          "coding" : [{
            "system" : "http://loinc.org",
            "code" : "83910-0",
            "display" : "Public health Note"
          }]
        },
        "text" : {
          "status" : "generated",
          "div" : "<div xmlns=\"http://www.w3.org/1999/xhtml\"><table><tr><td style=\"font-weight: bold\">title</td><td><div title=\"title\">Emergency Outbreak Information Section</div></td></tr><tr><td style=\"font-weight: bold\">code</td><td><ul style=\"list-style:none; padding-left:0; margin:0 0;\"><li><ul style=\"list-style:none; padding-left:0; margin:0 0;\"><li><div title=\"display\">Public health Note</div>(<div title=\"code\">83910-0</div>)</li><li><div title=\"system\"><a href=\"http://loinc.org\">http://loinc.org</a></div></li></ul></li></ul></td></tr><tr><td style=\"font-weight: bold\">entry</td><td><a href=\"Observation-observation-emergency-outbreak-info-anon.html\">US Public Health Emergency Outbreak Information Example</a></td></tr></table></div>"
        },
        "entry" : [{
          "reference" : "Observation/observation-emergency-outbreak-info-anon"
        }]
      },
      {
        "title" : "Past Medical History Section",
        "code" : {
          "coding" : [{
            "system" : "http://loinc.org",
            "code" : "11348-0",
            "display" : "History of Past illness Narrative"
          }]
        },
        "text" : {
          "extension" : [{
            "url" : "http://hl7.org/fhir/StructureDefinition/data-absent-reason",
            "valueCode" : "masked"
          }],
          "status" : "generated",
          "div" : "<div xmlns=\"http://www.w3.org/1999/xhtml\"><p>MASKED</p></div>"
        }
      },
      {
        "title" : "Review of Systems Section",
        "code" : {
          "coding" : [{
            "system" : "http://loinc.org",
            "code" : "10187-3",
            "display" : "Review of systems Narrative - Reported"
          }]
        },
        "text" : {
          "status" : "generated",
          "div" : "<div xmlns=\"http://www.w3.org/1999/xhtml\"><table xmlns:xsl=\"http://www.w3.org/1999/XSL/Transform\"><tr><td style=\"font-weight: bold\">title</td><td><div title=\"title\">Review of Systems Section</div></td></tr><tr><td style=\"font-weight: bold\">code</td><td><ul style=\"list-style:none; padding-left:0; margin:0 0;\"><li><ul style=\"list-style:none; padding-left:0; margin:0 0;\"><li><div title=\"display\">Review of Systems Section Narrative</div>(<div title=\"code\">10187-3</div>)</li><li><div title=\"system\"><a href=\"http://loinc.org\">http://loinc.org</a></div></li></ul></li></ul></td></tr><tr><td colspan=\"2\" lang=\"en-US\" class=\"text-no-entries\"><p>Review of systems</p></td></tr></table></div>"
        }
      }]
    }
  },
  {
    "fullUrl" : "http://www.example.org/fhir/Condition/condition-zika-anon",
    "resource" : {
      "resourceType" : "Condition",
      "id" : "condition-zika-anon",
      "text" : {
        "status" : "generated",
        "div" : "<div xmlns=\"http://www.w3.org/1999/xhtml\"><a name=\"Condition_condition-zika-anon\"> </a><p><b>Generated Narrative: Condition </b><a name=\"condition-zika-anon\"> </a><a name=\"hccondition-zika-anon\"> </a></p><div style=\"display: inline-block; background-color: #d9e0e7; padding: 6px; margin: 4px; border: 1px solid #8da1b4; border-radius: 5px; line-height: 60%\"><p style=\"margin-bottom: 0px\">ResourceCondition &quot;condition-zika-anon&quot; </p></div><p><b>category</b>: Encounter Diagnosis <span style=\"background: LightGoldenRodYellow; margin: 4px; border: 1px solid khaki\"> (<a href=\"http://terminology.hl7.org/5.5.0/CodeSystem-condition-category.html\">Condition Category Codes</a>#encounter-diagnosis)</span></p><p><b>code</b>: Zika virus disease (disorder) <span style=\"background: LightGoldenRodYellow; margin: 4px; border: 1px solid khaki\"> (<a href=\"https://browser.ihtsdotools.org/\">SNOMED CT</a>#3928002)</span></p><p><b>subject</b>: See on this page: Patient/patient-anon</p><p><b>onset</b>: 2017-08-23</p><p><b>asserter</b>: See on this page: Practitioner/practitioner-anon</p></div>"
      },
      "category" : [{
        "coding" : [{
          "system" : "http://terminology.hl7.org/CodeSystem/condition-category",
          "code" : "encounter-diagnosis",
          "display" : "Encounter Diagnosis"
        }]
      }],
      "code" : {
        "coding" : [{
          "system" : "http://snomed.info/sct",
          "code" : "3928002",
          "display" : "Zika virus disease (disorder)"
        }]
      },
      "subject" : {
        "reference" : "Patient/patient-anon"
      },
      "onsetDateTime" : "2017-08-23",
      "asserter" : {
        "reference" : "Practitioner/practitioner-anon"
      }
    }
  },
  {
    "fullUrl" : "http://www.example.org/fhir/Condition/condition-common-cold-anon",
    "resource" : {
      "resourceType" : "Condition",
      "id" : "condition-common-cold-anon",
      "meta" : {
        "profile" : ["http://hl7.org/fhir/us/ecr/StructureDefinition/us-ph-condition"]
      },
      "text" : {
        "status" : "generated",
        "div" : "<div xmlns=\"http://www.w3.org/1999/xhtml\"><a name=\"Condition_condition-common-cold-anon\"> </a><p><b>Generated Narrative: Condition </b><a name=\"condition-common-cold-anon\"> </a><a name=\"hccondition-common-cold-anon\"> </a></p><div style=\"display: inline-block; background-color: #d9e0e7; padding: 6px; margin: 4px; border: 1px solid #8da1b4; border-radius: 5px; line-height: 60%\"><p style=\"margin-bottom: 0px\">ResourceCondition &quot;condition-common-cold-anon&quot; </p><p style=\"margin-bottom: 0px\">Profile: <a href=\"http://hl7.org/fhir/us/ecr/STU2.1/StructureDefinition-us-ph-condition.html\">US Public Health Condition</a></p></div><p><b>category</b>: Problem List Item <span style=\"background: LightGoldenRodYellow; margin: 4px; border: 1px solid khaki\"> (<a href=\"http://terminology.hl7.org/5.5.0/CodeSystem-condition-category.html\">Condition Category Codes</a>#problem-list-item)</span></p><p><b>code</b>: Common cold (disorder) <span style=\"background: LightGoldenRodYellow; margin: 4px; border: 1px solid khaki\"> (<a href=\"https://browser.ihtsdotools.org/\">SNOMED CT</a>#82272006)</span></p><p><b>subject</b>: See on this page: Patient/patient-anon</p><p><b>onset</b>: 2017-09-23</p><p><b>asserter</b>: See on this page: Practitioner/practitioner-anon</p></div>"
      },
      "category" : [{
        "coding" : [{
          "system" : "http://terminology.hl7.org/CodeSystem/condition-category",
          "code" : "problem-list-item",
          "display" : "Problem List Item"
        }]
      }],
      "code" : {
        "coding" : [{
          "system" : "http://snomed.info/sct",
          "code" : "82272006",
          "display" : "Common cold (disorder)"
        }]
      },
      "subject" : {
        "reference" : "Patient/patient-anon"
      },
      "onsetDateTime" : "2017-09-23",
      "asserter" : {
        "reference" : "Practitioner/practitioner-anon"
      }
    }
  },
  {
    "fullUrl" : "http://www.example.org/fhir/Encounter/encounter-outpatient-anon",
    "resource" : {
      "resourceType" : "Encounter",
      "id" : "encounter-outpatient-anon",
      "meta" : {
        "profile" : ["http://fhir.org/fhir/us/anonymized-eicr/StructureDefinition/eicr-anon-encounter"]
      },
      "text" : {
        "status" : "extensions",
        "div" : "<div xmlns=\"http://www.w3.org/1999/xhtml\"><a name=\"Encounter_encounter-outpatient-anon\"> </a><p><b>Generated Narrative: Encounter </b><a name=\"encounter-outpatient-anon\"> </a><a name=\"hcencounter-outpatient-anon\"> </a></p><div style=\"display: inline-block; background-color: #d9e0e7; padding: 6px; margin: 4px; border: 1px solid #8da1b4; border-radius: 5px; line-height: 60%\"><p style=\"margin-bottom: 0px\">ResourceEncounter &quot;encounter-outpatient-anon&quot; </p><p style=\"margin-bottom: 0px\">Profile: <a href=\"StructureDefinition-eicr-anon-encounter.html\">eICR Anonymized Encounter</a></p></div><p><b>identifier</b>: <code>http://hospital.smarthealthit.org</code>/9937012</p><p><b>status</b>: finished</p><p><b>class</b>: ambulatory (Details: ActCode code AMB  = ' ambulatory ', stated as ' ambulatory ')</p><p><b>type</b>: Office Visit <span style=\"background: LightGoldenRodYellow; margin: 4px; border: 1px solid khaki\"> (<a href=\"http://terminology.hl7.org/5.3.0/CodeSystem-CPT.html\">Current Procedural Terminology (CPT®)</a>#99202)</span></p><p><b>subject</b>: See on this page: Patient/patient-anon</p><h3>Participants</h3><table class=\"grid\"><tr><td style=\"display: none\">-</td><td><b>Type</b></td><td><b>Individual</b></td></tr><tr><td style=\"display: none\">*</td><td>attender <span style=\"background: LightGoldenRodYellow; margin: 4px; border: 1px solid khaki\"> (<a href=\"http://terminology.hl7.org/5.5.0/CodeSystem-v3-ParticipationType.html\">ParticipationType</a>#ATND)</span></td><td>See on this page: PractitionerRole/practitionerrole-anon</td></tr></table><p><b>period</b>: 2018-04-01 10:00:00-0500 --&gt; 2018-04-02 10:15:00-0500</p><blockquote><p><b>diagnosis</b></p><blockquote><p><b>eICR Trigger Code Flag Extension</b></p><blockquote><p><b>url</b></p><code>triggerCodeValueSet</code></blockquote><p><b>value</b>: <code>urn:oid:2.16.840.1.114222.4.11.7508</code></p><blockquote><p><b>url</b></p><code>triggerCodeValueSetVersion</code></blockquote><p><b>value</b>: 12/12/2018</p><blockquote><p><b>url</b></p><code>triggerCode</code></blockquote><p><b>value</b>: Zika virus disease (disorder) (Details: SNOMED CT code 3928002  = ' Zika virus disease ', stated as ' Zika virus disease (disorder) ')</p></blockquote><p><b>condition</b>: See on this page: Condition/condition-zika-anon</p></blockquote><blockquote><p><b>diagnosis</b></p><p><b>condition</b>: See on this page: Condition/condition-common-cold-anon</p></blockquote><h3>Locations</h3><table class=\"grid\"><tr><td style=\"display: none\">-</td><td><b>Location</b></td></tr><tr><td style=\"display: none\">*</td><td>See on this page: Location/location-salem-medical-center-anon</td></tr></table><p><b>serviceProvider</b>: See on this page: Organization/organization-salem-medical-center-anon</p></div>"
      },
      "identifier" : [{
        "system" : "http://hospital.smarthealthit.org",
        "value" : "9937012"
      }],
      "status" : "finished",
      "class" : {
        "system" : "http://terminology.hl7.org/CodeSystem/v3-ActCode",
        "code" : "AMB",
        "display" : "ambulatory"
      },
      "type" : [{
        "coding" : [{
          "system" : "http://www.ama-assn.org/go/cpt",
          "code" : "99202"
        }],
        "text" : "Office Visit"
      }],
      "subject" : {
        "reference" : "Patient/patient-anon"
      },
      "participant" : [{
        "type" : [{
          "coding" : [{
            "system" : "http://terminology.hl7.org/CodeSystem/v3-ParticipationType",
            "code" : "ATND",
            "display" : "attender"
          }]
        }],
        "individual" : {
          "reference" : "PractitionerRole/practitionerrole-anon"
        }
      }],
      "period" : {
        "start" : "2018-04-01T10:00:00-05:00",
        "end" : "2018-04-02T10:15:00-05:00"
      },
      "diagnosis" : [{
        "extension" : [{
          "extension" : [{
            "url" : "triggerCodeValueSet",
            "valueOid" : "urn:oid:2.16.840.1.114222.4.11.7508"
          },
          {
            "url" : "triggerCodeValueSetVersion",
            "valueString" : "12/12/2018"
          },
          {
            "url" : "triggerCode",
            "valueCoding" : {
              "system" : "http://snomed.info/sct",
              "code" : "3928002",
              "display" : "Zika virus disease (disorder)"
            }
          }],
          "url" : "http://hl7.org/fhir/us/ecr/StructureDefinition/eicr-trigger-code-flag-extension"
        }],
        "condition" : {
          "reference" : "Condition/condition-zika-anon"
        }
      },
      {
        "condition" : {
          "reference" : "Condition/condition-common-cold-anon"
        }
      }],
      "location" : [{
        "location" : {
          "reference" : "Location/location-salem-medical-center-anon"
        }
      }],
      "serviceProvider" : {
        "reference" : "Organization/organization-salem-medical-center-anon"
      }
    }
  },
  {
    "fullUrl" : "http://www.example.org/fhir/Immunization/immunization-pneumo-anon",
    "resource" : {
      "resourceType" : "Immunization",
      "id" : "immunization-pneumo-anon",
      "meta" : {
        "profile" : ["http://fhir.org/fhir/us/anonymized-eicr/StructureDefinition/eicr-anon-immunization"]
      },
      "text" : {
        "status" : "generated",
        "div" : "<div xmlns=\"http://www.w3.org/1999/xhtml\"><a name=\"Immunization_immunization-pneumo-anon\"> </a><p><b>Generated Narrative: Immunization </b><a name=\"immunization-pneumo-anon\"> </a><a name=\"hcimmunization-pneumo-anon\"> </a></p><div style=\"display: inline-block; background-color: #d9e0e7; padding: 6px; margin: 4px; border: 1px solid #8da1b4; border-radius: 5px; line-height: 60%\"><p style=\"margin-bottom: 0px\">ResourceImmunization &quot;immunization-pneumo-anon&quot; </p><p style=\"margin-bottom: 0px\">Profile: <a href=\"StructureDefinition-eicr-anon-immunization.html\">eICR Anonymized Immunization</a></p></div><p><b>status</b>: completed</p><p><b>vaccineCode</b>: pneumococcal polysaccharide PPV23 <span style=\"background: LightGoldenRodYellow; margin: 4px; border: 1px solid khaki\"> (<a href=\"http://terminology.hl7.org/5.3.0/CodeSystem-CVX.html\">Vaccine Administered Code Set (CVX)</a>#33)</span></p><p><b>patient</b>: See on this page: Patient/patient-anon</p><p><b>occurrence</b>: 2018-09-01</p><p><b>primarySource</b>: true</p></div>"
      },
      "status" : "completed",
      "vaccineCode" : {
        "coding" : [{
          "system" : "http://hl7.org/fhir/sid/cvx",
          "code" : "33",
          "display" : "pneumococcal polysaccharide PPV23"
        }]
      },
      "patient" : {
        "reference" : "Patient/patient-anon"
      },
      "occurrenceDateTime" : "2018-09-01",
      "primarySource" : true
    }
  },
  {
    "fullUrl" : "http://www.example.org/fhir/Location/location-salem-medical-center-anon",
    "resource" : {
      "resourceType" : "Location",
      "id" : "location-salem-medical-center-anon",
      "meta" : {
        "profile" : ["http://fhir.org/fhir/us/anonymized-eicr/StructureDefinition/eicr-anon-location"]
      },
      "text" : {
        "status" : "generated",
        "div" : "<div xmlns=\"http://www.w3.org/1999/xhtml\"><a name=\"Location_location-salem-medical-center-anon\"> </a><p><b>Generated Narrative: Location </b><a name=\"location-salem-medical-center-anon\"> </a><a name=\"hclocation-salem-medical-center-anon\"> </a></p><div style=\"display: inline-block; background-color: #d9e0e7; padding: 6px; margin: 4px; border: 1px solid #8da1b4; border-radius: 5px; line-height: 60%\"><p style=\"margin-bottom: 0px\">ResourceLocation &quot;location-salem-medical-center-anon&quot; </p><p style=\"margin-bottom: 0px\">Profile: <a href=\"StructureDefinition-eicr-anon-location.html\">eICR Anonymized Location</a></p></div><p><b>identifier</b>: <code>http://hl7.org.fhir/sid/us-npi</code>/1144221995</p><p><b>status</b>: active</p><p><b>name</b>: Clinic Bldg A, Salem Medical Center</p><p><b>type</b>: Hospital <span style=\"background: LightGoldenRodYellow; margin: 4px; border: 1px solid khaki\"> (<a href=\"http://terminology.hl7.org/5.5.0/CodeSystem-v3-RoleCode.html\">RoleCode</a>#HOSP)</span></p><p><b>telecom</b>: -unknown-</p><p><b>address</b>: Clinic Bldg A 4444 Healthcare Drive Ann Arbor MI 99999 </p><p><b>managingOrganization</b>: See on this page: Organization/organization-salem-medical-center-anon</p></div>"
      },
      "identifier" : [{
        "system" : "http://hl7.org.fhir/sid/us-npi",
        "value" : "1144221995"
      }],
      "status" : "active",
      "name" : "Clinic Bldg A, Salem Medical Center",
      "type" : [{
        "coding" : [{
          "system" : "http://terminology.hl7.org/CodeSystem/v3-RoleCode",
          "code" : "HOSP",
          "display" : "Hospital"
        }]
      }],
      "telecom" : [{
        "extension" : [{
          "url" : "http://hl7.org/fhir/StructureDefinition/data-absent-reason",
          "valueCode" : "masked"
        }]
      }],
      "address" : {
        "line" : ["Clinic Bldg A",
        "4444 Healthcare Drive"],
        "city" : "Ann Arbor",
        "state" : "MI",
        "postalCode" : "99999"
      },
      "managingOrganization" : {
        "reference" : "Organization/organization-salem-medical-center-anon"
      }
    }
  },
  {
    "fullUrl" : "http://www.example.org/fhir/MedicationAdministration/medicationadministration-azithromycin-anon",
    "resource" : {
      "resourceType" : "MedicationAdministration",
      "id" : "medicationadministration-azithromycin-anon",
      "meta" : {
        "profile" : ["http://hl7.org/fhir/us/ecr/StructureDefinition/us-ph-medicationadministration"]
      },
      "text" : {
        "status" : "generated",
        "div" : "<div xmlns=\"http://www.w3.org/1999/xhtml\"><a name=\"MedicationAdministration_medicationadministration-azithromycin-anon\"> </a><p><b>Generated Narrative: MedicationAdministration </b><a name=\"medicationadministration-azithromycin-anon\"> </a><a name=\"hcmedicationadministration-azithromycin-anon\"> </a></p><div style=\"display: inline-block; background-color: #d9e0e7; padding: 6px; margin: 4px; border: 1px solid #8da1b4; border-radius: 5px; line-height: 60%\"><p style=\"margin-bottom: 0px\">ResourceMedicationAdministration &quot;medicationadministration-azithromycin-anon&quot; </p><p style=\"margin-bottom: 0px\">Profile: <a href=\"http://hl7.org/fhir/us/ecr/STU2.1/StructureDefinition-us-ph-medicationadministration.html\">US Public Health MedicationAdministration</a></p></div><p><b>status</b>: completed</p><p><b>medication</b>: Azithromycin 500 MG Oral Tablet <span style=\"background: LightGoldenRodYellow; margin: 4px; border: 1px solid khaki\"> (<a href=\"http://terminology.hl7.org/5.3.0/CodeSystem-v3-rxNorm.html\">RxNorm</a>#248656)</span></p><p><b>subject</b>: See on this page: Patient/patient-anon</p><p><b>effective</b>: 2018-03-07 --&gt; 2018-03-07</p><h3>Dosages</h3><table class=\"grid\"><tr><td style=\"display: none\">-</td><td><b>Text</b></td><td><b>Route</b></td><td><b>Method</b></td><td><b>Dose</b></td></tr><tr><td style=\"display: none\">*</td><td>Two tablets at once</td><td>Oral route <span style=\"background: LightGoldenRodYellow; margin: 4px; border: 1px solid khaki\"> (<a href=\"https://browser.ihtsdotools.org/\">SNOMED CT</a>#26643006)</span></td><td>Swallow - dosing instruction imperative (qualifier value) <span style=\"background: LightGoldenRodYellow; margin: 4px; border: 1px solid khaki\"> (<a href=\"https://browser.ihtsdotools.org/\">SNOMED CT</a>#421521009)</span></td><td>2 TAB<span style=\"background: LightGoldenRodYellow\"> (Details: Orderable Drug Form  codeTAB = 'Tablet')</span></td></tr></table></div>"
      },
      "status" : "completed",
      "medicationCodeableConcept" : {
        "coding" : [{
          "system" : "http://www.nlm.nih.gov/research/umls/rxnorm",
          "code" : "248656",
          "display" : "Azithromycin 500 MG Oral Tablet"
        }],
        "text" : "Azithromycin 500 MG Oral Tablet"
      },
      "subject" : {
        "reference" : "Patient/patient-anon"
      },
      "effectivePeriod" : {
        "start" : "2018-03-07",
        "end" : "2018-03-07"
      },
      "dosage" : {
        "text" : "Two tablets at once",
        "route" : {
          "coding" : [{
            "system" : "http://snomed.info/sct",
            "code" : "26643006",
            "display" : "Oral route"
          }]
        },
        "method" : {
          "coding" : [{
            "system" : "http://snomed.info/sct",
            "code" : "421521009",
            "display" : "Swallow - dosing instruction imperative (qualifier value)"
          }]
        },
        "dose" : {
          "value" : 2,
          "unit" : "TAB",
          "system" : "http://terminology.hl7.org/CodeSystem/v3-orderableDrugForm",
          "code" : "TAB"
        }
      }
    }
  },
  {
    "fullUrl" : "http://www.example.org/fhir/MedicationAdministration/medicationadministration-naloxone-response-anon",
    "resource" : {
      "resourceType" : "MedicationAdministration",
      "id" : "medicationadministration-naloxone-response-anon",
      "meta" : {
        "profile" : ["http://hl7.org/fhir/us/ecr/StructureDefinition/us-ph-medicationadministration"]
      },
      "text" : {
        "status" : "extensions",
        "div" : "<div xmlns=\"http://www.w3.org/1999/xhtml\"><a name=\"MedicationAdministration_medicationadministration-naloxone-response-anon\"> </a><p><b>Generated Narrative: MedicationAdministration </b><a name=\"medicationadministration-naloxone-response-anon\"> </a><a name=\"hcmedicationadministration-naloxone-response-anon\"> </a></p><div style=\"display: inline-block; background-color: #d9e0e7; padding: 6px; margin: 4px; border: 1px solid #8da1b4; border-radius: 5px; line-height: 60%\"><p style=\"margin-bottom: 0px\">ResourceMedicationAdministration &quot;medicationadministration-naloxone-response-anon&quot; </p><p style=\"margin-bottom: 0px\">Profile: <a href=\"http://hl7.org/fhir/us/ecr/STU2.1/StructureDefinition-us-ph-medicationadministration.html\">US Public Health MedicationAdministration</a></p></div><p><b>US Public Health Therapeutic Medication Response Extension</b>: Patient's condition improved (finding) <span style=\"background: LightGoldenRodYellow; margin: 4px; border: 1px solid khaki\"> (<a href=\"https://browser.ihtsdotools.org/\">SNOMED CT</a>#268910001)</span></p><p><b>status</b>: completed</p><p><b>medication</b>: naloxone HCl 0.4 MG in 1 ML Injection <span style=\"background: LightGoldenRodYellow; margin: 4px; border: 1px solid khaki\"> (<a href=\"http://terminology.hl7.org/5.3.0/CodeSystem-v3-rxNorm.html\">RxNorm</a>#1659929)</span></p><p><b>subject</b>: See on this page: Patient/patient-anon</p><p><b>effective</b>: 2018-03-07 --&gt; 2018-03-07</p><h3>Dosages</h3><table class=\"grid\"><tr><td style=\"display: none\">-</td><td><b>Route</b></td><td><b>Method</b></td><td><b>Dose</b></td></tr><tr><td style=\"display: none\">*</td><td>Gluteus maximus muscle <span style=\"background: LightGoldenRodYellow; margin: 4px; border: 1px solid khaki\"> (<a href=\"https://browser.ihtsdotools.org/\">SNOMED CT</a>#206007)</span></td><td>Inject - dosing instruction imperative (qualifier value) <span style=\"background: LightGoldenRodYellow; margin: 4px; border: 1px solid khaki\"> (<a href=\"https://browser.ihtsdotools.org/\">SNOMED CT</a>#422145002)</span></td><td>1 mL<span style=\"background: LightGoldenRodYellow\"> (Details: UCUM  codemL = 'mL')</span></td></tr></table></div>"
      },
      "extension" : [{
        "url" : "http://hl7.org/fhir/us/ecr/StructureDefinition/us-ph-therapeutic-medication-response-extension",
        "valueCodeableConcept" : {
          "coding" : [{
            "system" : "http://snomed.info/sct",
            "code" : "268910001",
            "display" : "Patient's condition improved (finding)"
          }]
        }
      }],
      "status" : "completed",
      "medicationCodeableConcept" : {
        "coding" : [{
          "system" : "http://www.nlm.nih.gov/research/umls/rxnorm",
          "code" : "1659929",
          "display" : "naloxone HCl 0.4 MG in 1 ML Injection"
        }]
      },
      "subject" : {
        "reference" : "Patient/patient-anon"
      },
      "effectivePeriod" : {
        "start" : "2018-03-07",
        "end" : "2018-03-07"
      },
      "dosage" : {
        "route" : {
          "coding" : [{
            "system" : "http://snomed.info/sct",
            "code" : "206007",
            "display" : "Gluteus maximus muscle"
          }]
        },
        "method" : {
          "coding" : [{
            "system" : "http://snomed.info/sct",
            "code" : "422145002",
            "display" : "Inject - dosing instruction imperative (qualifier value)"
          }]
        },
        "dose" : {
          "value" : 1,
          "unit" : "mL",
          "system" : "http://unitsofmeasure.org",
          "code" : "mL"
        }
      }
    }
  },
  {
    "fullUrl" : "http://www.example.org/fhir/Observation/observation-blood-pressure-anon",
    "resource" : {
      "resourceType" : "Observation",
      "id" : "observation-blood-pressure-anon",
      "meta" : {
        "profile" : ["http://hl7.org/fhir/us/core/StructureDefinition/us-core-blood-pressure"]
      },
      "text" : {
        "status" : "generated",
        "div" : "<div xmlns=\"http://www.w3.org/1999/xhtml\"><a name=\"Observation_observation-blood-pressure-anon\"> </a><p><b>Generated Narrative: Observation </b><a name=\"observation-blood-pressure-anon\"> </a><a name=\"hcobservation-blood-pressure-anon\"> </a></p><div style=\"display: inline-block; background-color: #d9e0e7; padding: 6px; margin: 4px; border: 1px solid #8da1b4; border-radius: 5px; line-height: 60%\"><p style=\"margin-bottom: 0px\">ResourceObservation &quot;observation-blood-pressure-anon&quot; </p><p style=\"margin-bottom: 0px\">Profile: <a href=\"http://hl7.org/fhir/us/core/STU4/StructureDefinition-us-core-blood-pressure.html\">US Core Blood Pressure Profile</a></p></div><p><b>status</b>: final</p><p><b>category</b>: Vital Signs <span style=\"background: LightGoldenRodYellow; margin: 4px; border: 1px solid khaki\"> (<a href=\"http://terminology.hl7.org/5.5.0/CodeSystem-observation-category.html\">Observation Category Codes</a>#vital-signs)</span></p><p><b>code</b>: Blood pressure systolic and diastolic <span style=\"background: LightGoldenRodYellow; margin: 4px; border: 1px solid khaki\"> (<a href=\"https://loinc.org/\">LOINC</a>#85354-9 &quot;Blood pressure panel with all children optional&quot;)</span></p><p><b>subject</b>: See on this page: Patient/patient-anon</p><p><b>encounter</b>: <span>: GP Visit</span></p><p><b>effective</b>: 2020-07-02</p><blockquote><p><b>component</b></p><p><b>code</b>: Systolic blood pressure <span style=\"background: LightGoldenRodYellow; margin: 4px; border: 1px solid khaki\"> (<a href=\"https://loinc.org/\">LOINC</a>#8480-6)</span></p><p><b>value</b>: 109 mmHg<span style=\"background: LightGoldenRodYellow\"> (Details: UCUM  codemm[Hg] = 'mm[Hg]')</span></p></blockquote><blockquote><p><b>component</b></p><p><b>code</b>: Diastolic blood pressure <span style=\"background: LightGoldenRodYellow; margin: 4px; border: 1px solid khaki\"> (<a href=\"https://loinc.org/\">LOINC</a>#8462-4)</span></p><p><b>value</b>: 44 mmHg<span style=\"background: LightGoldenRodYellow\"> (Details: UCUM  codemm[Hg] = 'mm[Hg]')</span></p></blockquote></div>"
      },
      "status" : "final",
      "category" : [{
        "coding" : [{
          "system" : "http://terminology.hl7.org/CodeSystem/observation-category",
          "code" : "vital-signs",
          "display" : "Vital Signs"
        }],
        "text" : "Vital Signs"
      }],
      "code" : {
        "coding" : [{
          "system" : "http://loinc.org",
          "code" : "85354-9",
          "display" : "Blood pressure panel with all children optional"
        }],
        "text" : "Blood pressure systolic and diastolic"
      },
      "subject" : {
        "reference" : "Patient/patient-anon"
      },
      "encounter" : {
        "display" : "GP Visit"
      },
      "effectiveDateTime" : "2020-07-02",
      "component" : [{
        "code" : {
          "coding" : [{
            "system" : "http://loinc.org",
            "code" : "8480-6",
            "display" : "Systolic blood pressure"
          }],
          "text" : "Systolic blood pressure"
        },
        "valueQuantity" : {
          "value" : 109,
          "unit" : "mmHg",
          "system" : "http://unitsofmeasure.org",
          "code" : "mm[Hg]"
        }
      },
      {
        "code" : {
          "coding" : [{
            "system" : "http://loinc.org",
            "code" : "8462-4",
            "display" : "Diastolic blood pressure"
          }],
          "text" : "Diastolic blood pressure"
        },
        "valueQuantity" : {
          "value" : 44,
          "unit" : "mmHg",
          "system" : "http://unitsofmeasure.org",
          "code" : "mm[Hg]"
        }
      }]
    }
  },
  {
    "fullUrl" : "http://www.example.org/fhir/Observation/observation-calculated-age-anon",
    "resource" : {
      "resourceType" : "Observation",
      "id" : "observation-calculated-age-anon",
      "meta" : {
        "profile" : ["http://fhir.org/fhir/us/anonymized-eicr/StructureDefinition/caculated-age-observation"]
      },
      "text" : {
        "status" : "generated",
        "div" : "<div xmlns=\"http://www.w3.org/1999/xhtml\"><a name=\"Observation_observation-calculated-age-anon\"> </a><p><b>Generated Narrative: Observation </b><a name=\"observation-calculated-age-anon\"> </a><a name=\"hcobservation-calculated-age-anon\"> </a></p><div style=\"display: inline-block; background-color: #d9e0e7; padding: 6px; margin: 4px; border: 1px solid #8da1b4; border-radius: 5px; line-height: 60%\"><p style=\"margin-bottom: 0px\">ResourceObservation &quot;observation-calculated-age-anon&quot; </p><p style=\"margin-bottom: 0px\">Profile: <a href=\"StructureDefinition-caculated-age-observation.html\">Calculated Age</a></p></div><p><b>status</b>: final</p><p><b>code</b>: Age calculated <span style=\"background: LightGoldenRodYellow; margin: 4px; border: 1px solid khaki\"> (<a href=\"https://loinc.org/\">LOINC</a>#29553-5)</span></p><p><b>subject</b>: See on this page: Patient/patient-anon</p><p><b>effective</b>: 2024-06-02 22:13:23+0000</p><p><b>value</b>: 35 year<span style=\"background: LightGoldenRodYellow\"> (Details: UCUM  codea = 'a')</span></p></div>"
      },
      "status" : "final",
      "code" : {
        "coding" : [{
          "system" : "http://loinc.org",
          "code" : "29553-5",
          "display" : "Age calculated"
        }]
      },
      "subject" : {
        "reference" : "Patient/patient-anon"
      },
      "effectiveDateTime" : "2024-06-02T22:13:23Z",
      "valueQuantity" : {
        "value" : 35,
        "unit" : "year",
        "system" : "http://unitsofmeasure.org",
        "code" : "a"
      }
    }
  },
  {
    "fullUrl" : "http://www.example.org/fhir/Observation/observation-country-of-nationality-anon",
    "resource" : {
      "resourceType" : "Observation",
      "id" : "observation-country-of-nationality-anon",
      "meta" : {
        "profile" : ["http://hl7.org/fhir/us/ecr/StructureDefinition/eicr-country-of-nationality"]
      },
      "text" : {
        "status" : "generated",
        "div" : "<div xmlns=\"http://www.w3.org/1999/xhtml\"><a name=\"Observation_observation-country-of-nationality-anon\"> </a><p><b>Generated Narrative: Observation </b><a name=\"observation-country-of-nationality-anon\"> </a><a name=\"hcobservation-country-of-nationality-anon\"> </a></p><div style=\"display: inline-block; background-color: #d9e0e7; padding: 6px; margin: 4px; border: 1px solid #8da1b4; border-radius: 5px; line-height: 60%\"><p style=\"margin-bottom: 0px\">ResourceObservation &quot;observation-country-of-nationality-anon&quot; </p><p style=\"margin-bottom: 0px\">Profile: <a href=\"http://hl7.org/fhir/us/ecr/STU2.1/StructureDefinition-eicr-country-of-nationality.html\">eICR Country of Nationality</a></p></div><p><b>status</b>: final</p><p><b>code</b>: Ethnicity / related nationality data (observable entity) <span style=\"background: LightGoldenRodYellow; margin: 4px; border: 1px solid khaki\"> (<a href=\"https://browser.ihtsdotools.org/\">SNOMED CT</a>#186034007)</span></p><p><b>subject</b>: See on this page: Patient/patient-anon</p><p><b>effective</b>: 2020-11-10 22:33:22+0000</p><p><b>value</b>: Australia <span style=\"background: LightGoldenRodYellow; margin: 4px; border: 1px solid khaki\"> (<a href=\"http://terminology.hl7.org/5.3.0/CodeSystem-ISO3166Part1.html\">ISO 3166-1 Codes for the representation of names of countries and their subdivisions — Part 1: Country code</a>#AU)</span></p></div>"
      },
      "status" : "final",
      "code" : {
        "coding" : [{
          "system" : "http://snomed.info/sct",
          "code" : "186034007",
          "display" : "Ethnicity / related nationality data (observable entity)"
        }]
      },
      "subject" : {
        "reference" : "Patient/patient-anon"
      },
      "effectiveDateTime" : "2020-11-10T22:33:22Z",
      "valueCodeableConcept" : {
        "coding" : [{
          "system" : "urn:iso:std:iso:3166",
          "code" : "AU",
          "display" : "Australia"
        }]
      }
    }
  },
  {
    "fullUrl" : "http://www.example.org/fhir/Observation/observation-country-of-residence-anon",
    "resource" : {
      "resourceType" : "Observation",
      "id" : "observation-country-of-residence-anon",
      "meta" : {
        "profile" : ["http://hl7.org/fhir/us/ecr/StructureDefinition/eicr-country-of-residence"]
      },
      "text" : {
        "status" : "generated",
        "div" : "<div xmlns=\"http://www.w3.org/1999/xhtml\"><a name=\"Observation_observation-country-of-residence-anon\"> </a><p><b>Generated Narrative: Observation </b><a name=\"observation-country-of-residence-anon\"> </a><a name=\"hcobservation-country-of-residence-anon\"> </a></p><div style=\"display: inline-block; background-color: #d9e0e7; padding: 6px; margin: 4px; border: 1px solid #8da1b4; border-radius: 5px; line-height: 60%\"><p style=\"margin-bottom: 0px\">ResourceObservation &quot;observation-country-of-residence-anon&quot; </p><p style=\"margin-bottom: 0px\">Profile: <a href=\"http://hl7.org/fhir/us/ecr/STU2.1/StructureDefinition-eicr-country-of-residence.html\">eICR Country of Residence</a></p></div><p><b>status</b>: final</p><p><b>code</b>: Country of usual residence <span style=\"background: LightGoldenRodYellow; margin: 4px; border: 1px solid khaki\"> (<a href=\"https://loinc.org/\">LOINC</a>#77983-5)</span></p><p><b>subject</b>: See on this page: Patient/patient-anon</p><p><b>effective</b>: 2020-11-10 22:33:22+0000</p><p><b>value</b>: United Kingdom of Great Britain and Northern Ireland <span style=\"background: LightGoldenRodYellow; margin: 4px; border: 1px solid khaki\"> (<a href=\"http://terminology.hl7.org/5.3.0/CodeSystem-ISO3166Part1.html\">ISO 3166-1 Codes for the representation of names of countries and their subdivisions — Part 1: Country code</a>#GB)</span></p></div>"
      },
      "status" : "final",
      "code" : {
        "coding" : [{
          "system" : "http://loinc.org",
          "code" : "77983-5",
          "display" : "Country of usual residence"
        }]
      },
      "subject" : {
        "reference" : "Patient/patient-anon"
      },
      "effectiveDateTime" : "2020-11-10T22:33:22Z",
      "valueCodeableConcept" : {
        "coding" : [{
          "system" : "urn:iso:std:iso:3166",
          "code" : "GB",
          "display" : "United Kingdom of Great Britain and Northern Ireland"
        }]
      }
    }
  },
  {
    "fullUrl" : "http://www.example.org/fhir/Observation/observation-disability-status-anon",
    "resource" : {
      "resourceType" : "Observation",
      "id" : "observation-disability-status-anon",
      "meta" : {
        "profile" : ["http://hl7.org/fhir/us/ecr/StructureDefinition/us-ph-disability-status"]
      },
      "text" : {
        "status" : "generated",
        "div" : "<div xmlns=\"http://www.w3.org/1999/xhtml\"><a name=\"Observation_observation-disability-status-anon\"> </a><p><b>Generated Narrative: Observation </b><a name=\"observation-disability-status-anon\"> </a><a name=\"hcobservation-disability-status-anon\"> </a></p><div style=\"display: inline-block; background-color: #d9e0e7; padding: 6px; margin: 4px; border: 1px solid #8da1b4; border-radius: 5px; line-height: 60%\"><p style=\"margin-bottom: 0px\">ResourceObservation &quot;observation-disability-status-anon&quot; </p><p style=\"margin-bottom: 0px\">Profile: <a href=\"http://hl7.org/fhir/us/ecr/STU2.1/StructureDefinition-us-ph-disability-status.html\">US Public Health Disability Status</a></p></div><p><b>status</b>: final</p><p><b>code</b>: Are you deaf, or do you have serious difficulty hearing <span style=\"background: LightGoldenRodYellow; margin: 4px; border: 1px solid khaki\"> (<a href=\"https://loinc.org/\">LOINC</a>#69856-3)</span></p><p><b>subject</b>: See on this page: Patient/patient-anon</p><p><b>effective</b>: 2020-11-10 22:33:22+0000</p><p><b>value</b>: true</p></div>"
      },
      "status" : "final",
      "code" : {
        "coding" : [{
          "system" : "http://loinc.org",
          "code" : "69856-3",
          "display" : "Are you deaf, or do you have serious difficulty hearing"
        }]
      },
      "subject" : {
        "reference" : "Patient/patient-anon"
      },
      "effectiveDateTime" : "2020-11-10T22:33:22Z",
      "valueBoolean" : true
    }
  },
  {
    "fullUrl" : "http://www.example.org/fhir/Observation/observation-odh-usual-work-anon",
    "resource" : {
      "resourceType" : "Observation",
      "id" : "observation-odh-usual-work-anon",
      "meta" : {
        "profile" : ["http://hl7.org/fhir/us/odh/StructureDefinition/odh-UsualWork"]
      },
      "text" : {
        "status" : "generated",
        "div" : "<div xmlns=\"http://www.w3.org/1999/xhtml\"><a name=\"Observation_observation-odh-usual-work-anon\"> </a><p><b>Generated Narrative: Observation </b><a name=\"observation-odh-usual-work-anon\"> </a><a name=\"hcobservation-odh-usual-work-anon\"> </a></p><div style=\"display: inline-block; background-color: #d9e0e7; padding: 6px; margin: 4px; border: 1px solid #8da1b4; border-radius: 5px; line-height: 60%\"><p style=\"margin-bottom: 0px\">ResourceObservation &quot;observation-odh-usual-work-anon&quot; </p><p style=\"margin-bottom: 0px\">Profile: <a href=\"http://hl7.org/fhir/us/odh/STU1.1/StructureDefinition-odh-UsualWork.html\">Usual Work</a></p></div><p><b>status</b>: final</p><p><b>code</b>: History of Usual occupation <span style=\"background: LightGoldenRodYellow; margin: 4px; border: 1px solid khaki\"> (<a href=\"https://loinc.org/\">LOINC</a>#21843-8)</span></p><p><b>subject</b>: See on this page: Patient/patient-anon</p><p><b>effective</b>: 2015-01-01 --&gt; 2018-03-07</p><p><b>value</b>: Human Resources Managers <span style=\"background: LightGoldenRodYellow; margin: 4px; border: 1px solid khaki\"> (unknown#0136)</span></p><h3>Components</h3><table class=\"grid\"><tr><td style=\"display: none\">-</td><td><b>Code</b></td><td><b>Value[x]</b></td></tr><tr><td style=\"display: none\">*</td><td>History of Usual industry <span style=\"background: LightGoldenRodYellow; margin: 4px; border: 1px solid khaki\"> (<a href=\"https://loinc.org/\">LOINC</a>#21844-6)</span></td><td>Hospitals <span style=\"background: LightGoldenRodYellow; margin: 4px; border: 1px solid khaki\"> (unknown#8190)</span></td></tr></table></div>"
      },
      "status" : "final",
      "code" : {
        "coding" : [{
          "system" : "http://loinc.org",
          "code" : "21843-8",
          "display" : "History of Usual occupation"
        }]
      },
      "subject" : {
        "reference" : "Patient/patient-anon"
      },
      "effectivePeriod" : {
        "start" : "2015-01-01",
        "end" : "2018-03-07"
      },
      "valueCodeableConcept" : {
        "coding" : [{
          "system" : "urn:oid:2.16.840.1.114222.4.5.314",
          "code" : "0136",
          "display" : "Human Resources Managers"
        }]
      },
      "component" : [{
        "code" : {
          "coding" : [{
            "system" : "http://loinc.org",
            "code" : "21844-6",
            "display" : "History of Usual industry"
          }]
        },
        "valueCodeableConcept" : {
          "coding" : [{
            "system" : "urn:oid:2.16.840.1.114222.4.5.315",
            "code" : "8190",
            "display" : "Hospitals"
          }]
        }
      }]
    }
  },
  {
    "fullUrl" : "http://www.example.org/fhir/Observation/observation-pregnancy-status-anon",
    "resource" : {
      "resourceType" : "Observation",
      "id" : "observation-pregnancy-status-anon",
      "meta" : {
        "profile" : ["http://hl7.org/fhir/us/ecr/StructureDefinition/us-ph-pregnancy-status-observation"]
      },
      "text" : {
        "status" : "extensions",
        "div" : "<div xmlns=\"http://www.w3.org/1999/xhtml\"><a name=\"Observation_observation-pregnancy-status-anon\"> </a><p><b>Generated Narrative: Observation </b><a name=\"observation-pregnancy-status-anon\"> </a><a name=\"hcobservation-pregnancy-status-anon\"> </a></p><div style=\"display: inline-block; background-color: #d9e0e7; padding: 6px; margin: 4px; border: 1px solid #8da1b4; border-radius: 5px; line-height: 60%\"><p style=\"margin-bottom: 0px\">ResourceObservation &quot;observation-pregnancy-status-anon&quot; </p><p style=\"margin-bottom: 0px\">Profile: <a href=\"http://hl7.org/fhir/us/ecr/STU2.1/StructureDefinition-us-ph-pregnancy-status-observation.html\">US Public Health Pregnancy Status Observation</a></p></div><p><b>US Public Health Date Recorded Extension</b>: 2017-10-01</p><p><b>US Public Health Date Determined Extension</b>: 2017-10-01</p><p><b>status</b>: final</p><p><b>code</b>: Pregnancy status <span style=\"background: LightGoldenRodYellow; margin: 4px; border: 1px solid khaki\"> (<a href=\"https://loinc.org/\">LOINC</a>#82810-3)</span></p><p><b>subject</b>: See on this page: Patient/patient-anon</p><p><b>effective</b>: 2017-08-26 --&gt; (ongoing)</p><p><b>value</b>: Pregnancy (finding) <span style=\"background: LightGoldenRodYellow; margin: 4px; border: 1px solid khaki\"> (<a href=\"https://browser.ihtsdotools.org/\">SNOMED CT</a>#77386006)</span></p><p><b>method</b>: Ultrasonography (procedure) <span style=\"background: LightGoldenRodYellow; margin: 4px; border: 1px solid khaki\"> (<a href=\"https://browser.ihtsdotools.org/\">SNOMED CT</a>#16310003)</span></p><blockquote><p><b>component</b></p><p><b>US Public Health Date Determined Extension</b>: 2017-10-01</p><p><b>code</b>: Gestational age Estimated from patient reported estimated date of conception <span style=\"background: LightGoldenRodYellow; margin: 4px; border: 1px solid khaki\"> (<a href=\"https://loinc.org/\">LOINC</a>#53691-2)</span></p><p><b>value</b>: 143 d</p></blockquote><blockquote><p><b>component</b></p><p><b>US Public Health Date Determined Extension</b>: 2017-10-01</p><p><b>code</b>: Delivery date Estimated from date fundal height reaches umb <span style=\"background: LightGoldenRodYellow; margin: 4px; border: 1px solid khaki\"> (<a href=\"https://loinc.org/\">LOINC</a>#57064-8)</span></p><p><b>value</b>: 2018-05-01</p></blockquote></div>"
      },
      "extension" : [{
        "url" : "http://hl7.org/fhir/us/ecr/StructureDefinition/us-ph-date-recorded-extension",
        "valueDateTime" : "2017-10-01"
      },
      {
        "url" : "http://hl7.org/fhir/us/ecr/StructureDefinition/us-ph-date-determined-extension",
        "valueDateTime" : "2017-10-01"
      }],
      "status" : "final",
      "code" : {
        "coding" : [{
          "system" : "http://loinc.org",
          "code" : "82810-3",
          "display" : "Pregnancy status"
        }]
      },
      "subject" : {
        "reference" : "Patient/patient-anon"
      },
      "effectivePeriod" : {
        "start" : "2017-08-26"
      },
      "valueCodeableConcept" : {
        "coding" : [{
          "system" : "http://snomed.info/sct",
          "code" : "77386006",
          "display" : "Pregnancy (finding)"
        }]
      },
      "method" : {
        "coding" : [{
          "system" : "http://snomed.info/sct",
          "code" : "16310003",
          "display" : "Ultrasonography (procedure)"
        }]
      },
      "component" : [{
        "extension" : [{
          "url" : "http://hl7.org/fhir/us/ecr/StructureDefinition/us-ph-date-determined-extension",
          "valueDateTime" : "2017-10-01"
        }],
        "code" : {
          "coding" : [{
            "system" : "http://loinc.org",
            "code" : "53691-2",
            "display" : "Gestational age Estimated from patient reported estimated date of conception"
          }]
        },
        "valueQuantity" : {
          "value" : 143,
          "unit" : "d"
        }
      },
      {
        "extension" : [{
          "url" : "http://hl7.org/fhir/us/ecr/StructureDefinition/us-ph-date-determined-extension",
          "valueDateTime" : "2017-10-01"
        }],
        "code" : {
          "coding" : [{
            "system" : "http://loinc.org",
            "code" : "57064-8",
            "display" : "Delivery date Estimated from date fundal height reaches umb"
          }]
        },
        "valueDateTime" : "2018-05-01"
      }]
    }
  },
  {
    "fullUrl" : "http://www.example.org/fhir/Observation/observation-travel-history-201801-anon",
    "resource" : {
      "resourceType" : "Observation",
      "id" : "observation-travel-history-201801-anon",
      "meta" : {
        "profile" : ["http://hl7.org/fhir/us/ecr/StructureDefinition/us-ph-travel-history"]
      },
      "text" : {
        "status" : "generated",
        "div" : "<div xmlns=\"http://www.w3.org/1999/xhtml\"><a name=\"Observation_observation-travel-history-201801-anon\"> </a><p><b>Generated Narrative: Observation </b><a name=\"observation-travel-history-201801-anon\"> </a><a name=\"hcobservation-travel-history-201801-anon\"> </a></p><div style=\"display: inline-block; background-color: #d9e0e7; padding: 6px; margin: 4px; border: 1px solid #8da1b4; border-radius: 5px; line-height: 60%\"><p style=\"margin-bottom: 0px\">ResourceObservation &quot;observation-travel-history-201801-anon&quot; </p><p style=\"margin-bottom: 0px\">Profile: <a href=\"http://hl7.org/fhir/us/ecr/STU2.1/StructureDefinition-us-ph-travel-history.html\">US Public Health Travel History</a></p></div><p><b>status</b>: final</p><p><b>code</b>: Travel History <span style=\"background: LightGoldenRodYellow; margin: 4px; border: 1px solid khaki\"> (<a href=\"https://browser.ihtsdotools.org/\">SNOMED CT</a>#420008001 &quot;Travel&quot;)</span></p><p><b>subject</b>: See on this page: Patient/patient-anon</p><p><b>effective</b>: 2018-01-15 --&gt; 2018-01-30</p><blockquote><p><b>component</b></p><p><b>code</b>: Location <span style=\"background: LightGoldenRodYellow; margin: 4px; border: 1px solid khaki\"> (<a href=\"http://terminology.hl7.org/5.5.0/CodeSystem-v3-ParticipationType.html\">ParticipationType</a>#LOC)</span></p><p><b>value</b>: Vanuatu <span style=\"background: LightGoldenRodYellow; margin: 4px; border: 1px solid khaki\"> (unknown#VUT)</span></p></blockquote><blockquote><p><b>component</b></p><p><b>code</b>: Type of activity (attribute) <span style=\"background: LightGoldenRodYellow; margin: 4px; border: 1px solid khaki\"> (<a href=\"https://browser.ihtsdotools.org/\">SNOMED CT</a>#280147009)</span></p><p><b>value</b>: Active duty military (occupation) <span style=\"background: LightGoldenRodYellow; margin: 4px; border: 1px solid khaki\"> (<a href=\"https://browser.ihtsdotools.org/\">SNOMED CT</a>#702348006)</span></p></blockquote></div>"
      },
      "status" : "final",
      "code" : {
        "coding" : [{
          "system" : "http://snomed.info/sct",
          "code" : "420008001",
          "display" : "Travel"
        }],
        "text" : "Travel History"
      },
      "subject" : {
        "reference" : "Patient/patient-anon"
      },
      "effectivePeriod" : {
        "start" : "2018-01-15",
        "end" : "2018-01-30"
      },
      "component" : [{
        "code" : {
          "coding" : [{
            "system" : "http://terminology.hl7.org/CodeSystem/v3-ParticipationType",
            "code" : "LOC",
            "display" : "Location"
          }]
        },
        "valueCodeableConcept" : {
          "coding" : [{
            "system" : "urn:oid:1.0.3166.1",
            "code" : "VUT",
            "display" : "Vanuatu"
          }]
        }
      },
      {
        "code" : {
          "coding" : [{
            "system" : "http://snomed.info/sct",
            "code" : "280147009",
            "display" : "Type of activity (attribute)"
          }]
        },
        "valueCodeableConcept" : {
          "coding" : [{
            "system" : "http://snomed.info/sct",
            "code" : "702348006",
            "display" : "Active duty military (occupation)"
          }]
        }
      }]
    }
  },
  {
    "fullUrl" : "http://www.example.org/fhir/Observation/observation-emergency-outbreak-info-anon",
    "resource" : {
      "resourceType" : "Observation",
      "id" : "observation-emergency-outbreak-info-anon",
      "meta" : {
        "profile" : ["http://hl7.org/fhir/us/ecr/StructureDefinition/us-ph-emergency-outbreak-information"]
      },
      "text" : {
        "status" : "generated",
        "div" : "<div xmlns=\"http://www.w3.org/1999/xhtml\"><a name=\"Observation_observation-emergency-outbreak-info-anon\"> </a><p><b>Generated Narrative: Observation </b><a name=\"observation-emergency-outbreak-info-anon\"> </a><a name=\"hcobservation-emergency-outbreak-info-anon\"> </a></p><div style=\"display: inline-block; background-color: #d9e0e7; padding: 6px; margin: 4px; border: 1px solid #8da1b4; border-radius: 5px; line-height: 60%\"><p style=\"margin-bottom: 0px\">ResourceObservation &quot;observation-emergency-outbreak-info-anon&quot; </p><p style=\"margin-bottom: 0px\">Profile: <a href=\"http://hl7.org/fhir/us/ecr/STU2.1/StructureDefinition-us-ph-emergency-outbreak-information.html\">US Public Health Emergency Outbreak Information</a></p></div><p><b>status</b>: final</p><p><b>code</b>: Employee desk distance from mail sorter <span style=\"background: LightGoldenRodYellow; margin: 4px; border: 1px solid khaki\"> ()</span></p><p><b>subject</b>: See on this page: Patient/patient-anon</p><p><b>effective</b>: 2020-11-18 22:33:22+0000</p><p><b>value</b>: 2 m</p></div>"
      },
      "status" : "final",
      "code" : {
        "text" : "Employee desk distance from mail sorter"
      },
      "subject" : {
        "reference" : "Patient/patient-anon"
      },
      "effectiveDateTime" : "2020-11-18T22:33:22Z",
      "valueQuantity" : {
        "value" : 2,
        "unit" : "m"
      }
    }
  },
  {
    "fullUrl" : "http://www.example.org/fhir/Observation/observation-lab-result-lymphocytes-anon",
    "resource" : {
      "resourceType" : "Observation",
      "id" : "observation-lab-result-lymphocytes-anon",
      "meta" : {
        "profile" : ["http://hl7.org/fhir/us/core/StructureDefinition/us-core-observation-lab"]
      },
      "text" : {
        "status" : "generated",
        "div" : "<div xmlns=\"http://www.w3.org/1999/xhtml\"><a name=\"Observation_observation-lab-result-lymphocytes-anon\"> </a><p><b>Generated Narrative: Observation </b><a name=\"observation-lab-result-lymphocytes-anon\"> </a><a name=\"hcobservation-lab-result-lymphocytes-anon\"> </a></p><div style=\"display: inline-block; background-color: #d9e0e7; padding: 6px; margin: 4px; border: 1px solid #8da1b4; border-radius: 5px; line-height: 60%\"><p style=\"margin-bottom: 0px\">ResourceObservation &quot;observation-lab-result-lymphocytes-anon&quot; </p><p style=\"margin-bottom: 0px\">Profile: <a href=\"http://hl7.org/fhir/us/core/STU4/StructureDefinition-us-core-observation-lab.html\">US Core Laboratory Result Observation Profile</a></p></div><p><b>status</b>: final</p><p><b>category</b>: Laboratory <span style=\"background: LightGoldenRodYellow; margin: 4px; border: 1px solid khaki\"> (<a href=\"http://terminology.hl7.org/5.5.0/CodeSystem-observation-category.html\">Observation Category Codes</a>#laboratory)</span></p><p><b>code</b>: Lymphocytes [#/volume] in Blood by Automated count <span style=\"background: LightGoldenRodYellow; margin: 4px; border: 1px solid khaki\"> (<a href=\"https://loinc.org/\">LOINC</a>#731-0)</span></p><p><b>subject</b>: See on this page: Patient/patient-anon</p><p><b>effective</b>: 2018-03-07</p><p><b>value</b>: 5.2 10*3/uL<span style=\"background: LightGoldenRodYellow\"> (Details: UCUM  code10*3/uL = '10*3/uL')</span></p><p><b>interpretation</b>: High <span style=\"background: LightGoldenRodYellow; margin: 4px; border: 1px solid khaki\"> (<a href=\"http://terminology.hl7.org/5.5.0/CodeSystem-v3-ObservationInterpretation.html\">ObservationInterpretation</a>#H)</span></p><h3>ReferenceRanges</h3><table class=\"grid\"><tr><td style=\"display: none\">-</td><td><b>Low</b></td><td><b>High</b></td></tr><tr><td style=\"display: none\">*</td><td>1 10*3/uL<span style=\"background: LightGoldenRodYellow\"> (Details: UCUM  code10*3/uL = '10*3/uL')</span></td><td>4.8 10*3/uL<span style=\"background: LightGoldenRodYellow\"> (Details: UCUM  code10*3/uL = '10*3/uL')</span></td></tr></table></div>"
      },
      "status" : "final",
      "category" : [{
        "coding" : [{
          "system" : "http://terminology.hl7.org/CodeSystem/observation-category",
          "code" : "laboratory",
          "display" : "Laboratory"
        }],
        "text" : "Laboratory"
      }],
      "code" : {
        "coding" : [{
          "system" : "http://loinc.org",
          "code" : "731-0",
          "display" : "Lymphocytes [#/volume] in Blood by Automated count"
        }]
      },
      "subject" : {
        "reference" : "Patient/patient-anon"
      },
      "effectiveDateTime" : "2018-03-07",
      "valueQuantity" : {
        "value" : 5.2,
        "system" : "http://unitsofmeasure.org",
        "code" : "10*3/uL"
      },
      "interpretation" : [{
        "coding" : [{
          "system" : "http://terminology.hl7.org/CodeSystem/v3-ObservationInterpretation",
          "code" : "H",
          "display" : "High"
        }]
      }],
      "referenceRange" : [{
        "low" : {
          "value" : 1,
          "system" : "http://unitsofmeasure.org",
          "code" : "10*3/uL"
        },
        "high" : {
          "value" : 4.8,
          "system" : "http://unitsofmeasure.org",
          "code" : "10*3/uL"
        }
      }]
    }
  },
  {
    "fullUrl" : "http://www.example.org/fhir/Observation/observation-vaccine-credential-assertion-anon",
    "resource" : {
      "resourceType" : "Observation",
      "id" : "observation-vaccine-credential-assertion-anon",
      "meta" : {
        "profile" : ["http://hl7.org/fhir/us/ecr/StructureDefinition/eicr-vaccine-credential-patient-assertion"]
      },
      "text" : {
        "status" : "generated",
        "div" : "<div xmlns=\"http://www.w3.org/1999/xhtml\"><a name=\"Observation_observation-vaccine-credential-assertion-anon\"> </a><p><b>Generated Narrative: Observation </b><a name=\"observation-vaccine-credential-assertion-anon\"> </a><a name=\"hcobservation-vaccine-credential-assertion-anon\"> </a></p><div style=\"display: inline-block; background-color: #d9e0e7; padding: 6px; margin: 4px; border: 1px solid #8da1b4; border-radius: 5px; line-height: 60%\"><p style=\"margin-bottom: 0px\">ResourceObservation &quot;observation-vaccine-credential-assertion-anon&quot; </p><p style=\"margin-bottom: 0px\">Profile: <a href=\"http://hl7.org/fhir/us/ecr/STU2.1/StructureDefinition-eicr-vaccine-credential-patient-assertion.html\">eICR Vaccine Credential Patient Assertion</a></p></div><p><b>status</b>: final</p><p><b>code</b>: Immunization status - Reported <span style=\"background: LightGoldenRodYellow; margin: 4px; border: 1px solid khaki\"> (<a href=\"https://loinc.org/\">LOINC</a>#11370-4)</span></p><p><b>subject</b>: See on this page: Patient/patient-anon</p><p><b>effective</b>: 2020-11-10 22:33:22+0000</p><p><b>value</b>: Yes <span style=\"background: LightGoldenRodYellow; margin: 4px; border: 1px solid khaki\"> (<a href=\"http://terminology.hl7.org/5.3.0/CodeSystem-v2-0532.html\">expandedYes-NoIndicator</a>#Y)</span></p></div>"
      },
      "status" : "final",
      "code" : {
        "coding" : [{
          "system" : "http://loinc.org",
          "code" : "11370-4",
          "display" : "Immunization status - Reported"
        }]
      },
      "subject" : {
        "reference" : "Patient/patient-anon"
      },
      "effectiveDateTime" : "2020-11-10T22:33:22Z",
      "valueCodeableConcept" : {
        "coding" : [{
          "system" : "http://terminology.hl7.org/CodeSystem/v2-0532",
          "code" : "Y",
          "display" : "Yes"
        }]
      }
    }
  },
  {
    "fullUrl" : "http://www.example.org/fhir/Organization/organization-acme-laboratory-telecom-anon",
    "resource" : {
      "resourceType" : "Organization",
      "id" : "organization-acme-laboratory-telecom-anon",
      "meta" : {
        "profile" : ["http://fhir.org/fhir/us/anonymized-eicr/StructureDefinition/eicr-anon-org-telecom"]
      },
      "text" : {
        "status" : "generated",
        "div" : "<div xmlns=\"http://www.w3.org/1999/xhtml\"><a name=\"Organization_organization-acme-laboratory-telecom-anon\"> </a><p><b>Generated Narrative: Organization </b><a name=\"organization-acme-laboratory-telecom-anon\"> </a><a name=\"hcorganization-acme-laboratory-telecom-anon\"> </a></p><div style=\"display: inline-block; background-color: #d9e0e7; padding: 6px; margin: 4px; border: 1px solid #8da1b4; border-radius: 5px; line-height: 60%\"><p style=\"margin-bottom: 0px\">ResourceOrganization &quot;organization-acme-laboratory-telecom-anon&quot; </p><p style=\"margin-bottom: 0px\">Profile: <a href=\"StructureDefinition-eicr-anon-org-telecom.html\">eICR Anonymized Organization - Telecom</a></p></div><p><b>identifier</b>: <code>http://hl7.org.fhir/sid/us-npi</code>/1144221999</p><p><b>active</b>: true</p><p><b>type</b>: outpatient laboratory <span style=\"background: LightGoldenRodYellow; margin: 4px; border: 1px solid khaki\"> (<a href=\"http://terminology.hl7.org/5.5.0/CodeSystem-v3-RoleCode.html\">RoleCode</a>#OUTLAB)</span></p><p><b>name</b>: Acme Labs</p><p><b>telecom</b>: -unknown-</p><p><b>address</b>: 7777 Laboratory Drive Ann Arbor MI 99999 </p></div>"
      },
      "identifier" : [{
        "system" : "http://hl7.org.fhir/sid/us-npi",
        "value" : "1144221999"
      }],
      "active" : true,
      "type" : [{
        "coding" : [{
          "system" : "http://terminology.hl7.org/CodeSystem/v3-RoleCode",
          "code" : "OUTLAB",
          "display" : "outpatient laboratory"
        }]
      }],
      "name" : "Acme Labs",
      "telecom" : [{
        "extension" : [{
          "url" : "http://hl7.org/fhir/StructureDefinition/data-absent-reason",
          "valueCode" : "masked"
        }]
      }],
      "address" : [{
        "line" : ["7777 Laboratory Drive"],
        "city" : "Ann Arbor",
        "state" : "MI",
        "postalCode" : "99999"
      }]
    }
  },
  {
    "fullUrl" : "http://www.example.org/fhir/Organization/organization-telecom-anon",
    "resource" : {
      "resourceType" : "Organization",
      "id" : "organization-telecom-anon",
      "meta" : {
        "profile" : ["http://fhir.org/fhir/us/anonymized-eicr/StructureDefinition/eicr-anon-org-telecom"]
      },
      "text" : {
        "status" : "generated",
        "div" : "<div xmlns=\"http://www.w3.org/1999/xhtml\"><a name=\"Organization_organization-telecom-anon\"> </a><p><b>Generated Narrative: Organization </b><a name=\"organization-telecom-anon\"> </a><a name=\"hcorganization-telecom-anon\"> </a></p><div style=\"display: inline-block; background-color: #d9e0e7; padding: 6px; margin: 4px; border: 1px solid #8da1b4; border-radius: 5px; line-height: 60%\"><p style=\"margin-bottom: 0px\">ResourceOrganization &quot;organization-telecom-anon&quot; </p><p style=\"margin-bottom: 0px\">Profile: <a href=\"StructureDefinition-eicr-anon-org-telecom.html\">eICR Anonymized Organization - Telecom</a></p></div><p><b>identifier</b>: <code>http://hl7.org.fhir/sid/us-npi</code>/545454545</p><p><b>active</b>: true</p><p><b>name</b>: Telecom Anonymized Organization</p><p><b>telecom</b>: -unknown-</p><p><b>address</b>: 11111 Custodian Drive Ann Arbor MI 99999 </p></div>"
      },
      "identifier" : [{
        "system" : "http://hl7.org.fhir/sid/us-npi",
        "value" : "545454545"
      }],
      "active" : true,
      "name" : "Telecom Anonymized Organization",
      "telecom" : [{
        "extension" : [{
          "url" : "http://hl7.org/fhir/StructureDefinition/data-absent-reason",
          "valueCode" : "masked"
        }]
      }],
      "address" : [{
        "line" : ["11111 Custodian Drive"],
        "city" : "Ann Arbor",
        "state" : "MI",
        "postalCode" : "99999"
      }]
    }
  },
  {
    "fullUrl" : "http://www.example.org/fhir/Organization/organization-salem-medical-center-anon",
    "resource" : {
      "resourceType" : "Organization",
      "id" : "organization-salem-medical-center-anon",
      "meta" : {
        "profile" : ["http://fhir.org/fhir/us/anonymized-eicr/StructureDefinition/eicr-anon-organization"]
      },
      "text" : {
        "status" : "generated",
        "div" : "<div xmlns=\"http://www.w3.org/1999/xhtml\"><a name=\"Organization_organization-salem-medical-center-anon\"> </a><p><b>Generated Narrative: Organization </b><a name=\"organization-salem-medical-center-anon\"> </a><a name=\"hcorganization-salem-medical-center-anon\"> </a></p><div style=\"display: inline-block; background-color: #d9e0e7; padding: 6px; margin: 4px; border: 1px solid #8da1b4; border-radius: 5px; line-height: 60%\"><p style=\"margin-bottom: 0px\">ResourceOrganization &quot;organization-salem-medical-center-anon&quot; </p><p style=\"margin-bottom: 0px\">Profile: <a href=\"StructureDefinition-eicr-anon-organization.html\">eICR Anonymized Organization - Address, Telecom</a></p></div><p><b>identifier</b>: <code>http://hl7.org.fhir/sid/us-npi</code>/55555555</p><p><b>active</b>: true</p><p><b>name</b>: Salem Medical Center</p><p><b>telecom</b>: -unknown-</p><p><b>address</b>: </p></div>"
      },
      "identifier" : [{
        "system" : "http://hl7.org.fhir/sid/us-npi",
        "value" : "55555555"
      }],
      "active" : true,
      "name" : "Salem Medical Center",
      "telecom" : [{
        "extension" : [{
          "url" : "http://hl7.org/fhir/StructureDefinition/data-absent-reason",
          "valueCode" : "masked"
        }]
      }],
      "address" : [{
        "extension" : [{
          "url" : "http://hl7.org/fhir/StructureDefinition/data-absent-reason",
          "valueCode" : "masked"
        }]
      }]
    }
  },
  {
    "fullUrl" : "http://www.example.org/fhir/Patient/patient-anon",
    "resource" : {
      "resourceType" : "Patient",
      "id" : "patient-anon",
      "meta" : {
        "profile" : ["http://fhir.org/fhir/us/anonymized-eicr/StructureDefinition/eicr-anon-patient"]
      },
      "text" : {
        "status" : "extensions",
        "div" : "<div xmlns=\"http://www.w3.org/1999/xhtml\"><a name=\"Patient_patient-anon\"> </a><p><b>Generated Narrative: Patient </b><a name=\"patient-anon\"> </a><a name=\"hcpatient-anon\"> </a></p><div style=\"display: inline-block; background-color: #d9e0e7; padding: 6px; margin: 4px; border: 1px solid #8da1b4; border-radius: 5px; line-height: 60%\"><p style=\"margin-bottom: 0px\">ResourcePatient &quot;patient-anon&quot; </p><p style=\"margin-bottom: 0px\">Profile: <a href=\"StructureDefinition-eicr-anon-patient.html\">eICR Anonymized Patient</a></p></div><blockquote><p><b>US Core Race Extension</b></p><blockquote><p><b>url</b></p><code>text</code></blockquote><p><b>value</b>: White</p><blockquote><p><b>url</b></p><code>ombCategory</code></blockquote><p><b>value</b>: White (Details: Race &amp; Ethnicity - CDC code 2106-3  = ' White ', stated as ' White ')</p></blockquote><blockquote><p><b>US Core Ethnicity Extension</b></p><blockquote><p><b>url</b></p><code>text</code></blockquote><p><b>value</b>: Not Hispanic or Latino</p><blockquote><p><b>url</b></p><code>ombCategory</code></blockquote><p><b>value</b>: Not Hispanic or Latino (Details: Race &amp; Ethnicity - CDC code 2186-5  = ' Not Hispanic or Latino ', stated as ' Not Hispanic or Latino ')</p></blockquote><p><b>US Core Birth Sex Extension</b>: F</p><blockquote><p><b>US Public Health Gender Identity Extension</b></p><blockquote><p><b>url</b></p><code>value</code></blockquote><p><b>value</b>: asked but unknown <span style=\"background: LightGoldenRodYellow; margin: 4px; border: 1px solid khaki\"> (<a href=\"http://terminology.hl7.org/5.5.0/CodeSystem-v3-NullFlavor.html\">NullFlavor</a>#ASKU)</span></p></blockquote><blockquote><p><b>US Public Health Tribal Affiliation Extension</b></p><blockquote><p><b>url</b></p><code>TribeName</code></blockquote><p><b>value</b>: Fort Mojave Indian Tribe of Arizona, California &amp; Nevada (Details: TribalEntityUS code 91  = ' Fort Mojave Indian Tribe of Arizona, California &amp; Nevada ', stated as ' Fort Mojave Indian Tribe of Arizona, California &amp; Nevada ')</p><blockquote><p><b>url</b></p><code>EnrolledTribeMember</code></blockquote><p><b>value</b>: true</p></blockquote><p><b>identifier</b>: Medical Record Number/?ngen-9?\u00a0(use:\u00a0usual)</p><p><b>active</b>: true</p><p><b>name</b>: </p><p><b>telecom</b>: ph: -unknown-(HOME), <a href=\"mailto:null\"/></p><p><b>gender</b>: female</p><p><b>birthDate</b>: Absent because : <code>masked</code></p><p><b>deceased</b>: false</p><p><b>address</b>: null Atlanta GA 30302 US </p><h3>Contacts</h3><table class=\"grid\"><tr><td style=\"display: none\">-</td><td><b>Relationship</b></td><td><b>Name</b></td><td><b>Telecom</b></td><td><b>Address</b></td></tr><tr><td style=\"display: none\">*</td><td>guardian <span style=\"background: LightGoldenRodYellow; margin: 4px; border: 1px solid khaki\"> (<a href=\"http://terminology.hl7.org/5.5.0/CodeSystem-v3-RoleClass.html\">RoleClass</a>#GUARD)</span></td><td></td><td>-unknown-</td><td></td></tr></table><h3>Communications</h3><table class=\"grid\"><tr><td style=\"display: none\">-</td><td><b>Language</b></td></tr><tr><td style=\"display: none\">*</td><td>English <span style=\"background: LightGoldenRodYellow; margin: 4px; border: 1px solid khaki\"> (<a href=\"http://terminology.hl7.org/5.3.0/CodeSystem-v3-ietf3066.html\">Tags for the Identification of Languages</a>#en)</span></td></tr></table></div>"
      },
      "extension" : [{
        "extension" : [{
          "url" : "text",
          "valueString" : "White"
        },
        {
          "url" : "ombCategory",
          "valueCoding" : {
            "system" : "urn:oid:2.16.840.1.113883.6.238",
            "code" : "2106-3",
            "display" : "White"
          }
        }],
        "url" : "http://hl7.org/fhir/us/core/StructureDefinition/us-core-race"
      },
      {
        "extension" : [{
          "url" : "text",
          "valueString" : "Not Hispanic or Latino"
        },
        {
          "url" : "ombCategory",
          "valueCoding" : {
            "system" : "urn:oid:2.16.840.1.113883.6.238",
            "code" : "2186-5",
            "display" : "Not Hispanic or Latino"
          }
        }],
        "url" : "http://hl7.org/fhir/us/core/StructureDefinition/us-core-ethnicity"
      },
      {
        "url" : "http://hl7.org/fhir/us/core/StructureDefinition/us-core-birthsex",
        "valueCode" : "F"
      },
      {
        "extension" : [{
          "url" : "value",
          "valueCodeableConcept" : {
            "coding" : [{
              "system" : "http://terminology.hl7.org/CodeSystem/v3-NullFlavor",
              "code" : "ASKU",
              "display" : "asked but unknown"
            }],
            "text" : "asked but unknown"
          }
        }],
        "url" : "http://hl7.org/fhir/us/ecr/StructureDefinition/us-ph-genderidentity-extension"
      },
      {
        "extension" : [{
          "url" : "TribeName",
          "valueCoding" : {
            "system" : "http://terminology.hl7.org/CodeSystem/v3-TribalEntityUS",
            "code" : "91",
            "display" : "Fort Mojave Indian Tribe of Arizona, California & Nevada"
          }
        },
        {
          "url" : "EnrolledTribeMember",
          "valueBoolean" : true
        }],
        "url" : "http://hl7.org/fhir/us/ecr/StructureDefinition/us-ph-tribal-affiliation-extension"
      }],
      "identifier" : [{
        "use" : "usual",
        "type" : {
          "coding" : [{
            "system" : "http://terminology.hl7.org/CodeSystem/v2-0203",
            "code" : "MR",
            "display" : "Medical Record Number"
          }]
        },
        "_system" : {
          "extension" : [{
            "url" : "http://hl7.org/fhir/StructureDefinition/data-absent-reason",
            "valueCode" : "masked"
          }]
        },
        "_value" : {
          "extension" : [{
            "url" : "http://hl7.org/fhir/StructureDefinition/data-absent-reason",
            "valueCode" : "masked"
          }]
        }
      }],
      "active" : true,
      "name" : [{
        "extension" : [{
          "url" : "http://hl7.org/fhir/StructureDefinition/data-absent-reason",
          "valueCode" : "masked"
        }]
      }],
      "telecom" : [{
        "system" : "phone",
        "_value" : {
          "extension" : [{
            "url" : "http://hl7.org/fhir/StructureDefinition/data-absent-reason",
            "valueCode" : "masked"
          }]
        },
        "use" : "home"
      },
      {
        "system" : "email",
        "_value" : {
          "extension" : [{
            "url" : "http://hl7.org/fhir/StructureDefinition/data-absent-reason",
            "valueCode" : "masked"
          }]
        }
      }],
      "gender" : "female",
      "_birthDate" : {
        "extension" : [{
          "url" : "http://hl7.org/fhir/StructureDefinition/data-absent-reason",
          "valueCode" : "masked"
        }]
      },
      "deceasedBoolean" : false,
      "address" : [{
        "_line" : [{
          "extension" : [{
            "url" : "http://hl7.org/fhir/StructureDefinition/data-absent-reason",
            "valueCode" : "masked"
          }]
        }],
        "city" : "Atlanta",
        "state" : "GA",
        "postalCode" : "30302",
        "country" : "US"
      }],
      "contact" : [{
        "relationship" : [{
          "coding" : [{
            "system" : "http://terminology.hl7.org/CodeSystem/v3-RoleClass",
            "code" : "GUARD"
          }]
        }],
        "name" : {
          "extension" : [{
            "url" : "http://hl7.org/fhir/StructureDefinition/data-absent-reason",
            "valueCode" : "masked"
          }]
        },
        "telecom" : [{
          "extension" : [{
            "url" : "http://hl7.org/fhir/StructureDefinition/data-absent-reason",
            "valueCode" : "masked"
          }]
        }],
        "address" : {
          "extension" : [{
            "url" : "http://hl7.org/fhir/StructureDefinition/data-absent-reason",
            "valueCode" : "masked"
          }]
        }
      }],
      "communication" : [{
        "language" : {
          "coding" : [{
            "system" : "urn:ietf:bcp:47",
            "code" : "en",
            "display" : "English"
          }]
        }
      }]
    }
  },
  {
    "fullUrl" : "http://www.example.org/fhir/Practitioner/practitioner-anon",
    "resource" : {
      "resourceType" : "Practitioner",
      "id" : "practitioner-anon",
      "meta" : {
        "profile" : ["http://fhir.org/fhir/us/anonymized-eicr/StructureDefinition/eicr-anon-practitioner"]
      },
      "text" : {
        "status" : "generated",
        "div" : "<div xmlns=\"http://www.w3.org/1999/xhtml\"><a name=\"Practitioner_practitioner-anon\"> </a><p><b>Generated Narrative: Practitioner </b><a name=\"practitioner-anon\"> </a><a name=\"hcpractitioner-anon\"> </a></p><div style=\"display: inline-block; background-color: #d9e0e7; padding: 6px; margin: 4px; border: 1px solid #8da1b4; border-radius: 5px; line-height: 60%\"><p style=\"margin-bottom: 0px\">ResourcePractitioner &quot;practitioner-anon&quot; </p><p style=\"margin-bottom: 0px\">Profile: <a href=\"StructureDefinition-eicr-anon-practitioner.html\">eICR Anonymized Practitioner</a></p></div><p><b>identifier</b>: <a href=\"http://terminology.hl7.org/5.3.0/NamingSystem-npi.html\" title=\"National Provider Identifier\">United States National Provider Identifier</a>/9941339108</p><p><b>name</b>: null </p><p><b>telecom</b>: -unknown-</p><p><b>address</b>: </p></div>"
      },
      "identifier" : [{
        "system" : "http://hl7.org/fhir/sid/us-npi",
        "value" : "9941339108"
      }],
      "name" : [{
        "extension" : [{
          "url" : "http://hl7.org/fhir/StructureDefinition/data-absent-reason",
          "valueCode" : "masked"
        }],
        "_family" : {
          "extension" : [{
            "url" : "http://hl7.org/fhir/StructureDefinition/data-absent-reason",
            "valueCode" : "masked"
          }]
        }
      }],
      "telecom" : [{
        "extension" : [{
          "url" : "http://hl7.org/fhir/StructureDefinition/data-absent-reason",
          "valueCode" : "masked"
        }]
      }],
      "address" : [{
        "extension" : [{
          "url" : "http://hl7.org/fhir/StructureDefinition/data-absent-reason",
          "valueCode" : "masked"
        }]
      }]
    }
  },
  {
    "fullUrl" : "http://www.example.org/fhir/PractitionerRole/practitionerrole-anon",
    "resource" : {
      "resourceType" : "PractitionerRole",
      "id" : "practitionerrole-anon",
      "meta" : {
        "profile" : ["http://fhir.org/fhir/us/anonymized-eicr/StructureDefinition/eicr-anon-practitionerrole"]
      },
      "text" : {
        "status" : "generated",
        "div" : "<div xmlns=\"http://www.w3.org/1999/xhtml\"><a name=\"PractitionerRole_practitionerrole-anon\"> </a><p><b>Generated Narrative: PractitionerRole </b><a name=\"practitionerrole-anon\"> </a><a name=\"hcpractitionerrole-anon\"> </a></p><div style=\"display: inline-block; background-color: #d9e0e7; padding: 6px; margin: 4px; border: 1px solid #8da1b4; border-radius: 5px; line-height: 60%\"><p style=\"margin-bottom: 0px\">ResourcePractitionerRole &quot;practitionerrole-anon&quot; </p><p style=\"margin-bottom: 0px\">Profile: <a href=\"StructureDefinition-eicr-anon-practitionerrole.html\">eICR Anonymized PractitionerRole</a></p></div><p><b>identifier</b>: <a href=\"http://terminology.hl7.org/5.3.0/NamingSystem-npi.html\" title=\"National Provider Identifier\">United States National Provider Identifier</a>/9941339108</p><p><b>practitioner</b>: See on this page: Practitioner/practitioner-anon</p><p><b>organization</b>: See on this page: Organization/organization-salem-medical-center-anon</p><p><b>code</b>: Primary Care Clinic/Center <span style=\"background: LightGoldenRodYellow; margin: 4px; border: 1px solid khaki\"> (provider-taxonomy#261QP2300X)</span></p><p><b>specialty</b>: Family practice <span style=\"background: LightGoldenRodYellow; margin: 4px; border: 1px solid khaki\"> (<a href=\"https://browser.ihtsdotools.org/\">SNOMED CT</a>#419772000)</span></p><p><b>location</b>: See on this page: Location/location-salem-medical-center-anon</p><p><b>telecom</b>: <a href=\"mailto:null\"/></p></div>"
      },
      "identifier" : [{
        "system" : "http://hl7.org/fhir/sid/us-npi",
        "value" : "9941339108"
      }],
      "practitioner" : {
        "reference" : "Practitioner/practitioner-anon"
      },
      "organization" : {
        "reference" : "Organization/organization-salem-medical-center-anon"
      },
      "code" : [{
        "coding" : [{
          "system" : "http://nucc.org/provider-taxonomy",
          "code" : "261QP2300X",
          "display" : "Primary Care Clinic/Center"
        }]
      }],
      "specialty" : [{
        "coding" : [{
          "system" : "http://snomed.info/sct",
          "code" : "419772000",
          "display" : "Family practice"
        }]
      }],
      "location" : [{
        "reference" : "Location/location-salem-medical-center-anon"
      }],
      "telecom" : [{
        "system" : "email",
        "_value" : {
          "extension" : [{
            "url" : "http://hl7.org/fhir/StructureDefinition/data-absent-reason",
            "valueCode" : "masked"
          }]
        }
      }]
    }
  },
  {
    "fullUrl" : "http://www.example.org/fhir/Procedure/procedure-ecmo-anon",
    "resource" : {
      "resourceType" : "Procedure",
      "id" : "procedure-ecmo-anon",
      "meta" : {
        "profile" : ["http://hl7.org/fhir/us/ecr/StructureDefinition/eicr-procedure"]
      },
      "text" : {
        "status" : "generated",
        "div" : "<div xmlns=\"http://www.w3.org/1999/xhtml\"><a name=\"Procedure_procedure-ecmo-anon\"> </a><p><b>Generated Narrative: Procedure </b><a name=\"procedure-ecmo-anon\"> </a><a name=\"hcprocedure-ecmo-anon\"> </a></p><div style=\"display: inline-block; background-color: #d9e0e7; padding: 6px; margin: 4px; border: 1px solid #8da1b4; border-radius: 5px; line-height: 60%\"><p style=\"margin-bottom: 0px\">ResourceProcedure &quot;procedure-ecmo-anon&quot; </p><p style=\"margin-bottom: 0px\">Profile: <a href=\"http://hl7.org/fhir/us/ecr/STU2.1/StructureDefinition-eicr-procedure.html\">eICR Procedure</a></p></div><p><b>identifier</b>: <a href=\"http://terminology.hl7.org/5.3.0/NamingSystem-uri.html\" title=\"As defined by RFC 3986 (http://www.ietf.org/rfc/rfc3986.txt)(with many schemes defined in many RFCs). For OIDs and UUIDs, use the URN form (urn:oid:(note: lowercase) and urn:uuid:). See http://www.ietf.org/rfc/rfc3001.txt and http://www.ietf.org/rfc/rfc4122.txt \r\n\r\nThis oid is used as an identifier II.root to indicate the the extension is an absolute URI (technically, an IRI). Typically, this is used for OIDs and GUIDs. Note that when this OID is used with OIDs and GUIDs, the II.extension should start with urn:oid or urn:uuid: \r\n\r\nNote that this OID is created to aid with interconversion between CDA and FHIR - FHIR uses urn:ietf:rfc:3986 as equivalent to this OID. URIs as identifiers appear more commonly in FHIR.\r\n\r\nThis OID may also be used in CD.codeSystem.\">Uniform Resource Identifier (URI)</a>/urn:uuid:b2a737f2-2fdb-49c1-b097-dac173d07afd</p><p><b>status</b>: completed</p><p><b>code</b>: Extracorporeal membrane oxygenation (procedure) <span style=\"background: LightGoldenRodYellow; margin: 4px; border: 1px solid khaki\"> (<a href=\"https://browser.ihtsdotools.org/\">SNOMED CT</a>#233573008)</span></p><p><b>subject</b>: See on this page: Patient/patient-anon</p><p><b>performed</b>: 2020-11-01 12:55:26-0700 --&gt; 2020-11-01 13:25:26-0700</p><h3>FocalDevices</h3><table class=\"grid\"><tr><td style=\"display: none\">-</td><td><b>Manipulated</b></td></tr><tr><td style=\"display: none\">*</td><td><a href=\"Device-device-ecmo-anon.html\">Device/device-ecmo-anon</a></td></tr></table></div>"
      },
      "identifier" : [{
        "system" : "urn:ietf:rfc:3986",
        "value" : "urn:uuid:b2a737f2-2fdb-49c1-b097-dac173d07afd"
      }],
      "status" : "completed",
      "code" : {
        "coding" : [{
          "system" : "http://snomed.info/sct",
          "code" : "233573008",
          "display" : "Extracorporeal membrane oxygenation (procedure)"
        }],
        "text" : "Extracorporeal membrane oxygenation (procedure)"
      },
      "subject" : {
        "reference" : "Patient/patient-anon"
      },
      "performedPeriod" : {
        "start" : "2020-11-01T12:55:26-07:00",
        "end" : "2020-11-01T13:25:26-07:00"
      },
      "focalDevice" : [{
        "manipulated" : {
          "reference" : "Device/device-ecmo-anon"
        }
      }]
    }
  },
  {
    "fullUrl" : "http://www.example.org/fhir/ServiceRequest/servicerequest-zika-anon",
    "resource" : {
      "resourceType" : "ServiceRequest",
      "id" : "servicerequest-zika-anon",
      "meta" : {
        "profile" : ["http://hl7.org/fhir/us/ecr/StructureDefinition/eicr-servicerequest"]
      },
      "text" : {
        "status" : "generated",
        "div" : "<div xmlns=\"http://www.w3.org/1999/xhtml\"><a name=\"ServiceRequest_servicerequest-zika-anon\"> </a><p><b>Generated Narrative: ServiceRequest </b><a name=\"servicerequest-zika-anon\"> </a><a name=\"hcservicerequest-zika-anon\"> </a></p><div style=\"display: inline-block; background-color: #d9e0e7; padding: 6px; margin: 4px; border: 1px solid #8da1b4; border-radius: 5px; line-height: 60%\"><p style=\"margin-bottom: 0px\">ResourceServiceRequest &quot;servicerequest-zika-anon&quot; </p><p style=\"margin-bottom: 0px\">Profile: <a href=\"http://hl7.org/fhir/us/ecr/STU2.1/StructureDefinition-eicr-servicerequest.html\">eICR ServiceRequest</a></p></div><p><b>identifier</b>: <code>http://lab.smarthealthit.org</code>/061ef612-344f-4e7b-81a8-1059ae7bbe11</p><p><b>status</b>: completed</p><p><b>intent</b>: order</p><p><b>category</b>: Diagnostics Procedure <span style=\"background: LightGoldenRodYellow; margin: 4px; border: 1px solid khaki\"> (<a href=\"https://browser.ihtsdotools.org/\">SNOMED CT</a>#103693007 &quot;Diagnostic procedure (procedure)&quot;)</span></p><p><b>code</b>: Zika RT-PCR <span style=\"background: LightGoldenRodYellow; margin: 4px; border: 1px solid khaki\"> (<a href=\"https://loinc.org/\">LOINC</a>#80825-3 &quot;Zika virus envelope E gene [Presence] in Serum by NAA with probe detection&quot;)</span></p><p><b>subject</b>: See on this page: Patient/patient-anon</p><p><b>performer</b>: See on this page: Organization/organization-acme-laboratory-telecom-anon</p></div>"
      },
      "identifier" : [{
        "system" : "http://lab.smarthealthit.org",
        "value" : "061ef612-344f-4e7b-81a8-1059ae7bbe11"
      }],
      "status" : "completed",
      "intent" : "order",
      "category" : [{
        "coding" : [{
          "system" : "http://snomed.info/sct",
          "code" : "103693007",
          "display" : "Diagnostic procedure (procedure)"
        }],
        "text" : "Diagnostics Procedure"
      }],
      "code" : {
        "coding" : [{
          "system" : "http://loinc.org",
          "code" : "80825-3",
          "display" : "Zika virus envelope E gene [Presence] in Serum by NAA with probe detection"
        }],
        "text" : "Zika RT-PCR"
      },
      "subject" : {
        "reference" : "Patient/patient-anon"
      },
      "performer" : [{
        "reference" : "Organization/organization-acme-laboratory-telecom-anon"
      }]
    }
  }]
}